subjid,session,trialno,texpr,validity,pexpr,stimf,sex,id,onset,dur,corr_resp,subj_resp,accuracy,rt
mm_,1,129,fre,valid,fre,fre99w61.avi,9,9w,0.156,0.800,1,,miss,
mm_,1,82,ekl,valid,ekl,ekl99w56.avi,9,9w,0.871,0.800,1,,miss,
mm_,1,72,ekl,valid,ekl,ekl99m38.avi,9,9m,1.685,0.800,1,,miss,
mm_,1,59,ekl,valid,ekl,ekl99w08.avi,9,9w,2.470,0.800,1,,miss,
mm_,1,47,fre,valid,fre,fre99w08.avi,9,9w,3.268,0.800,1,,miss,
mm_,1,89,fre,valid,fre,fre99w22.avi,9,9w,4.069,0.800,1,,miss,
mm_,1,106,ekl,invalid,fre,fre99m47.avi,9,9m,4.869,0.800,1,,miss,
mm_,1,24,fre,invalid,ekl,ekl99m09.avi,9,9m,5.662,0.800,1,,miss,
mm_,1,153,ekl,valid,ekl,ekl99w58.avi,9,9w,6.467,0.800,1,,miss,
mm_,1,11,ekl,valid,ekl,ekl99w12.avi,9,9w,7.341,0.800,1,,miss,
mm_,1,42,fre,valid,fre,fre99w12.avi,9,9w,8.052,0.800,1,,miss,
mm_,1,23,fre,invalid,ekl,ekl99m24.avi,9,9m,8.870,0.800,1,,miss,
mm_,1,8,fre,valid,fre,fre99m21.avi,9,9m,9.664,0.800,1,,miss,
mm_,1,87,ekl,invalid,fre,fre99m24.avi,9,9m,10.468,0.800,1,,miss,
mm_,1,80,ekl,valid,ekl,ekl99m33.avi,9,9m,11.274,0.800,1,,miss,
mm_,1,5,fre,invalid,ekl,ekl99m71.avi,9,9m,12.074,0.800,1,,miss,
mm_,1,96,fre,invalid,ekl,ekl99m15.avi,9,9m,12.870,0.800,1,,miss,
mm_,1,30,ekl,valid,ekl,ekl99m28.avi,9,9m,13.668,0.800,1,,miss,
mm_,1,65,ekl,valid,ekl,ekl99m49.avi,9,9m,14.490,0.800,1,,miss,
mm_,1,29,fre,invalid,ekl,ekl99m71.avi,9,9m,15.253,0.800,1,,miss,
mm_,1,127,fre,valid,fre,fre99w56.avi,9,9w,16.068,0.800,1,,miss,
mm_,1,19,fre,invalid,ekl,ekl99m20.avi,9,9m,16.854,0.800,1,,miss,
mm_,1,9,fre,valid,fre,fre99m10.avi,9,9m,17.668,0.800,1,,miss,
mm_,1,98,ekl,valid,ekl,ekl99w61.avi,9,9w,18.469,0.800,1,,miss,
mm_,1,102,ekl,valid,ekl,ekl99w27.avi,9,9w,19.261,0.800,1,,miss,
mm_,1,51,fre,invalid,ekl,ekl99m07.avi,9,9m,20.072,0.800,1,,miss,
mm_,1,136,fre,valid,fre,fre99w12.avi,9,9w,20.853,0.800,1,,miss,
mm_,1,32,fre,valid,fre,fre99m25.avi,9,9m,21.670,0.800,1,,miss,
mm_,1,130,ekl,invalid,fre,fre99m71.avi,9,9m,22.496,0.800,1,,miss,
mm_,1,31,fre,valid,fre,fre99m24.avi,9,9m,23.253,0.800,1,,miss,
mm_,1,36,fre,valid,fre,fre99w12.avi,9,9w,24.054,0.800,1,,miss,
mm_,1,124,ekl,valid,ekl,ekl99m07.avi,9,9m,24.860,0.800,1,,miss,
mm_,1,16,fre,valid,fre,fre99m47.avi,9,9m,25.654,0.800,1,,miss,
mm_,1,146,fre,valid,fre,fre99w04.avi,9,9w,26.488,0.800,1,,miss,
mm_,1,103,fre,valid,fre,fre99w04.avi,9,9w,27.254,0.800,1,,miss,
mm_,1,20,fre,valid,fre,fre99m71.avi,9,9m,28.060,0.800,1,,miss,
mm_,1,121,fre,valid,fre,fre99m33.avi,9,9m,28.870,0.800,1,,miss,
mm_,1,63,ekl,invalid,fre,fre99m21.avi,9,9m,29.650,0.800,1,,miss,
mm_,1,39,ekl,valid,ekl,ekl99w26.avi,9,9w,30.617,0.800,1,,miss,
mm_,1,125,fre,invalid,ekl,ekl99m20.avi,9,9m,31.254,0.800,1,,miss,
mm_,1,148,fre,invalid,ekl,ekl99m28.avi,9,9m,32.052,0.800,1,,miss,
mm_,1,78,ekl,valid,ekl,ekl99w32.avi,9,9w,32.894,0.800,1,,miss,
mm_,1,101,fre,valid,fre,fre99m07.avi,9,9m,33.726,0.800,1,,miss,
mm_,1,84,ekl,valid,ekl,ekl99w26.avi,9,9w,34.451,0.800,1,,miss,
mm_,1,41,ekl,valid,ekl,ekl99m03.avi,9,9m,35.256,0.800,1,,miss,
mm_,1,50,ekl,invalid,fre,fre99m09.avi,9,9m,36.063,0.800,1,,miss,
mm_,1,133,fre,valid,fre,fre99m05.avi,9,9m,36.851,0.800,1,,miss,
mm_,1,88,fre,valid,fre,fre99w61.avi,9,9w,37.652,0.800,1,,miss,
mm_,1,83,fre,valid,fre,fre99m20.avi,9,9m,38.481,0.800,1,,miss,
mm_,1,66,ekl,valid,ekl,ekl99m23.avi,9,9m,39.269,0.800,1,,miss,
mm_,1,43,fre,invalid,ekl,ekl99m15.avi,9,9m,40.051,0.800,1,,miss,
mm_,1,79,fre,invalid,ekl,ekl99m38.avi,9,9m,40.855,0.800,1,,miss,
mm_,1,160,ekl,invalid,fre,fre99m07.avi,9,9m,41.654,0.800,1,,miss,
mm_,1,44,ekl,valid,ekl,ekl99w16.avi,9,9w,42.473,0.800,1,,miss,
mm_,1,119,fre,valid,fre,fre99w19.avi,9,9w,43.272,0.800,1,,miss,
mm_,1,122,fre,invalid,ekl,ekl99m49.avi,9,9m,44.053,0.800,1,,miss,
mm_,1,1,ekl,valid,ekl,ekl99m20.avi,9,9m,44.877,0.800,1,,miss,
mm_,1,49,fre,valid,fre,fre99w27.avi,9,9w,45.668,0.800,1,,miss,
mm_,1,13,ekl,valid,ekl,ekl99m25.avi,9,9m,46.470,0.800,1,,miss,
mm_,1,110,ekl,valid,ekl,ekl99m49.avi,9,9m,47.255,0.800,1,,miss,
mm_,1,6,ekl,invalid,fre,fre99m46.avi,9,9m,48.074,0.800,1,,miss,
mm_,1,3,fre,valid,fre,fre99m46.avi,9,9m,48.854,0.800,1,,miss,
mm_,1,53,fre,valid,fre,fre99m10.avi,9,9m,49.652,0.800,1,,miss,
mm_,1,45,ekl,valid,ekl,ekl99m03.avi,9,9m,50.476,0.800,1,,miss,
mm_,1,75,ekl,valid,ekl,ekl99w01.avi,9,9w,51.274,0.800,1,,miss,
mm_,1,150,ekl,valid,ekl,ekl99m25.avi,9,9m,52.056,0.800,1,,miss,
mm_,1,113,ekl,valid,ekl,ekl99m05.avi,9,9m,52.862,0.800,1,,miss,
mm_,1,144,fre,valid,fre,fre99m03.avi,9,9m,53.652,0.800,1,,miss,
mm_,1,46,ekl,invalid,fre,fre99m24.avi,9,9m,54.493,0.800,1,,miss,
mm_,1,158,ekl,valid,ekl,ekl99w61.avi,9,9w,55.269,0.800,1,,miss,
mm_,1,37,ekl,valid,ekl,ekl99m46.avi,9,9m,56.069,0.800,1,,miss,
mm_,1,126,ekl,valid,ekl,ekl99w19.avi,9,9w,56.868,0.800,1,,miss,
mm_,1,64,fre,invalid,ekl,ekl99m21.avi,9,9m,57.664,0.800,1,,miss,
mm_,1,100,fre,valid,fre,fre99w16.avi,9,9w,58.580,0.800,1,,miss,
mm_,1,38,fre,valid,fre,fre99m09.avi,9,9m,59.266,0.800,1,,miss,
mm_,1,10,fre,valid,fre,fre99w58.avi,9,9w,60.077,0.800,1,,miss,
mm_,1,90,ekl,valid,ekl,ekl99w04.avi,9,9w,60.869,0.800,1,,miss,
mm_,1,21,ekl,valid,ekl,ekl99m25.avi,9,9m,61.666,0.800,1,,miss,
mm_,1,74,fre,valid,fre,fre99w26.avi,9,9w,62.471,0.800,1,,miss,
mm_,1,35,ekl,invalid,fre,fre99m05.avi,9,9m,63.368,0.800,1,,miss,
mm_,1,154,fre,valid,fre,fre99w08.avi,9,9w,64.054,0.800,1,,miss,
mm_,1,69,fre,invalid,ekl,ekl99m36.avi,9,9m,64.992,0.800,1,,miss,
mm_,1,56,ekl,valid,ekl,ekl99w16.avi,9,9w,65.668,0.800,1,,miss,
mm_,1,139,ekl,valid,ekl,ekl99w37.avi,9,9w,66.462,0.800,1,,miss,
mm_,1,57,ekl,invalid,fre,fre99m71.avi,9,9m,67.270,0.800,1,,miss,
mm_,1,147,fre,valid,fre,fre99m15.avi,9,9m,68.052,0.800,1,,miss,
mm_,1,140,ekl,valid,ekl,ekl99m10.avi,9,9m,68.874,0.800,1,,miss,
mm_,1,2,fre,invalid,ekl,ekl99m20.avi,9,9m,69.673,0.800,1,,miss,
mm_,1,123,fre,valid,fre,fre99m33.avi,9,9m,70.597,0.800,1,,miss,
mm_,1,97,ekl,invalid,fre,fre99m03.avi,9,9m,71.390,0.800,1,,miss,
mm_,1,61,ekl,valid,ekl,ekl99m23.avi,9,9m,72.064,0.800,1,,miss,
mm_,1,26,fre,valid,fre,fre99m36.avi,9,9m,72.853,0.800,1,,miss,
mm_,1,105,ekl,valid,ekl,ekl99w02.avi,9,9w,73.662,0.800,1,,miss,
mm_,1,70,ekl,valid,ekl,ekl99w26.avi,9,9w,74.471,0.800,1,,miss,
mm_,1,7,fre,valid,fre,fre99w14.avi,9,9w,75.264,0.800,1,,miss,
mm_,1,28,ekl,valid,ekl,ekl99w16.avi,9,9w,76.053,0.800,1,,miss,
mm_,1,71,ekl,valid,ekl,ekl99w26.avi,9,9w,76.854,0.800,1,,miss,
mm_,1,151,fre,valid,fre,fre99w18.avi,9,9w,77.668,0.800,1,,miss,
mm_,1,120,fre,invalid,ekl,ekl99m23.avi,9,9m,78.454,0.800,1,,miss,
mm_,1,33,fre,valid,fre,fre99w01.avi,9,9w,79.272,0.800,1,,miss,
mm_,1,109,ekl,valid,ekl,ekl99w04.avi,9,9w,80.053,0.800,1,,miss,
mm_,1,67,ekl,valid,ekl,ekl99m21.avi,9,9m,80.868,0.800,1,,miss,
mm_,1,48,ekl,invalid,fre,fre99m49.avi,9,9m,81.664,0.800,1,,miss,
mm_,1,145,fre,valid,fre,fre99w58.avi,9,9w,82.454,0.800,1,,miss,
mm_,1,14,ekl,invalid,fre,fre99m33.avi,9,9m,83.253,0.800,1,,miss,
mm_,1,131,ekl,invalid,fre,fre99m03.avi,9,9m,84.054,0.800,1,,miss,
mm_,1,22,fre,valid,fre,fre99m30.avi,9,9m,84.872,0.800,1,,miss,
mm_,1,62,ekl,invalid,fre,fre99m23.avi,9,9m,85.676,0.800,1,,miss,
mm_,1,25,ekl,valid,ekl,ekl99w22.avi,9,9w,86.474,0.800,1,,miss,
mm_,1,104,ekl,valid,ekl,ekl99w56.avi,9,9w,87.254,0.800,1,,miss,
mm_,1,73,ekl,valid,ekl,ekl99m71.avi,9,9m,88.053,0.800,1,,miss,
mm_,1,159,ekl,valid,ekl,ekl99m30.avi,9,9m,88.870,0.800,1,,miss,
mm_,1,40,fre,valid,fre,fre99m15.avi,9,9m,89.653,0.800,1,,miss,
mm_,1,141,ekl,valid,ekl,ekl99w18.avi,9,9w,90.474,0.800,1,,miss,
mm_,1,138,fre,valid,fre,fre99w31.avi,9,9w,91.253,0.800,1,,miss,
mm_,1,76,ekl,valid,ekl,ekl99w18.avi,9,9w,92.053,0.800,1,,miss,
mm_,1,115,fre,valid,fre,fre99m05.avi,9,9m,92.853,0.800,1,,miss,
mm_,1,108,ekl,valid,ekl,ekl99m07.avi,9,9m,93.726,0.800,1,,miss,
mm_,1,94,ekl,invalid,fre,fre99m21.avi,9,9m,94.469,0.800,1,,miss,
mm_,1,111,fre,invalid,ekl,ekl99m03.avi,9,9m,95.273,0.800,1,,miss,
mm_,1,86,ekl,valid,ekl,ekl99m47.avi,9,9m,96.059,0.800,1,,miss,
mm_,1,17,ekl,valid,ekl,ekl99w58.avi,9,9w,96.854,0.800,1,,miss,
mm_,1,135,fre,valid,fre,fre99w57.avi,9,9w,97.660,0.800,1,,miss,
mm_,1,157,fre,valid,fre,fre99w12.avi,9,9w,98.474,0.800,1,,miss,
mm_,1,114,fre,invalid,ekl,ekl99m47.avi,9,9m,99.253,0.800,1,,miss,
mm_,1,128,fre,valid,fre,fre99m38.avi,9,9m,100.072,0.800,1,,miss,
mm_,1,68,fre,invalid,ekl,ekl99m28.avi,9,9m,100.998,0.800,1,,miss,
mm_,1,15,ekl,valid,ekl,ekl99m36.avi,9,9m,101.652,0.800,1,,miss,
mm_,1,4,ekl,valid,ekl,ekl99w14.avi,9,9w,102.471,0.800,1,,miss,
mm_,1,60,fre,invalid,ekl,ekl99m10.avi,9,9m,103.252,0.800,1,,miss,
mm_,1,112,ekl,valid,ekl,ekl99m09.avi,9,9m,104.052,0.800,1,,miss,
mm_,1,91,fre,valid,fre,fre99w02.avi,9,9w,104.864,0.800,1,,miss,
mm_,1,55,fre,valid,fre,fre99m28.avi,9,9m,105.675,0.800,1,,miss,
mm_,1,93,fre,valid,fre,fre99w18.avi,9,9w,106.454,0.800,1,,miss,
mm_,1,54,fre,valid,fre,fre99m20.avi,9,9m,107.266,0.800,1,,miss,
mm_,1,12,fre,valid,fre,fre99m23.avi,9,9m,108.054,0.800,1,,miss,
mm_,1,143,ekl,valid,ekl,ekl99m47.avi,9,9m,108.851,0.800,1,,miss,
mm_,1,18,ekl,invalid,fre,fre99m10.avi,9,9m,109.790,0.800,1,,miss,
mm_,1,152,ekl,valid,ekl,ekl99w31.avi,9,9w,110.459,0.800,1,,miss,
mm_,1,117,ekl,invalid,fre,fre99m23.avi,9,9m,111.253,0.800,1,,miss,
mm_,1,142,ekl,valid,ekl,ekl99m15.avi,9,9m,112.076,0.800,1,,miss,
mm_,1,156,fre,valid,fre,fre99m49.avi,9,9m,112.853,0.800,1,,miss,
mm_,1,116,fre,valid,fre,fre99m09.avi,9,9m,113.654,0.800,1,,miss,
mm_,1,134,fre,valid,fre,fre99m24.avi,9,9m,114.577,0.800,1,,miss,
mm_,1,58,ekl,valid,ekl,ekl99m23.avi,9,9m,115.253,0.800,1,,miss,
mm_,1,34,fre,valid,fre,fre99m23.avi,9,9m,116.050,0.800,1,,miss,
mm_,1,132,fre,valid,fre,fre99w37.avi,9,9w,116.867,0.800,1,,miss,
mm_,1,118,fre,valid,fre,fre99w32.avi,9,9w,117.654,0.800,1,,miss,
mm_,1,99,ekl,invalid,fre,fre99m20.avi,9,9m,118.453,0.800,1,,miss,
mm_,1,95,fre,valid,fre,fre99w37.avi,9,9w,119.251,0.800,1,,miss,
mm_,1,81,fre,valid,fre,fre99m46.avi,9,9m,120.249,0.800,1,,miss,
mm_,1,149,ekl,invalid,fre,fre99m38.avi,9,9m,120.852,0.800,1,,miss,
mm_,1,107,ekl,valid,ekl,ekl99m24.avi,9,9m,121.652,0.800,1,,miss,
mm_,1,92,ekl,valid,ekl,ekl99m24.avi,9,9m,122.727,0.800,1,,miss,
mm_,1,77,fre,valid,fre,fre99w01.avi,9,9w,123.264,0.800,1,,miss,
mm_,1,52,fre,valid,fre,fre99m49.avi,9,9m,124.054,0.800,1,,miss,
mm_,1,155,fre,valid,fre,fre99w31.avi,9,9w,124.855,0.800,1,,miss,
mm_,1,27,ekl,valid,ekl,ekl99w57.avi,9,9w,125.707,0.800,1,,miss,
mm_,1,137,ekl,valid,ekl,ekl99w18.avi,9,9w,126.453,0.800,1,,miss,
mm_,1,85,ekl,valid,ekl,ekl99m71.avi,9,9m,127.253,0.800,1,,miss,
mm_,1,64,fre,invalid,ekl,ekl99m21.avi,9,9m,0.143,3.200,1,,miss,
mm_,1,4,fre,valid,fre,fre99m09.avi,9,9m,3.286,3.200,1,,miss,
mm_,1,131,fre,valid,fre,fre99w32.avi,9,9w,6.469,3.200,1,,miss,
mm_,1,41,ekl,valid,ekl,ekl99w18.avi,9,9w,9.665,3.200,1,,miss,
mm_,1,91,ekl,invalid,fre,fre99m24.avi,9,9m,12.870,3.200,1,,miss,
mm_,1,14,ekl,invalid,fre,fre99m10.avi,9,9m,16.072,3.200,1,,miss,
mm_,1,13,ekl,valid,ekl,ekl99w57.avi,9,9w,19.269,3.200,1,,miss,
mm_,1,43,ekl,valid,ekl,ekl99m71.avi,9,9m,22.454,3.200,1,,miss,
mm_,1,21,ekl,valid,ekl,ekl99w37.avi,9,9w,25.667,3.200,1,,miss,
mm_,1,55,fre,valid,fre,fre99m49.avi,9,9m,28.867,3.200,1,,miss,
mm_,1,73,fre,valid,fre,fre99w01.avi,9,9w,32.067,3.200,1,,miss,
mm_,1,11,ekl,valid,ekl,ekl99w16.avi,9,9w,35.266,3.200,1,,miss,
mm_,1,72,fre,valid,fre,fre99w31.avi,9,9w,38.471,3.200,1,,miss,
mm_,1,102,ekl,valid,ekl,ekl99w37.avi,9,9w,41.654,3.200,1,,miss,
mm_,1,28,fre,valid,fre,fre99w02.avi,9,9w,44.867,3.200,1,,miss,
mm_,1,25,fre,invalid,ekl,ekl99m24.avi,9,9m,48.061,3.200,1,,miss,
mm_,1,153,ekl,valid,ekl,ekl99m38.avi,9,9m,51.255,3.200,1,,miss,
mm_,1,129,fre,invalid,ekl,ekl99m03.avi,9,9m,54.455,3.200,1,,miss,
mm_,1,112,fre,valid,fre,fre99m30.avi,9,9m,57.797,3.200,1,,miss,
mm_,1,141,ekl,valid,ekl,ekl99m28.avi,9,9m,60.868,3.200,1,,miss,
mm_,1,18,ekl,valid,ekl,ekl99m71.avi,9,9m,64.051,3.200,1,,miss,
mm_,1,38,fre,invalid,ekl,ekl99m49.avi,9,9m,67.267,3.200,1,,miss,
mm_,1,121,fre,valid,fre,fre99w26.avi,9,9w,70.536,3.200,1,,miss,
mm_,1,127,fre,valid,fre,fre99m33.avi,9,9m,73.673,3.200,1,,miss,
mm_,1,98,fre,invalid,ekl,ekl99m23.avi,9,9m,76.853,3.200,1,,miss,
mm_,1,85,fre,valid,fre,fre99m23.avi,9,9m,80.059,3.200,1,,miss,
mm_,1,147,fre,invalid,ekl,ekl99m09.avi,9,9m,83.369,3.200,1,,miss,
mm_,1,159,ekl,valid,ekl,ekl99m30.avi,9,9m,86.472,3.200,1,,miss,
mm_,1,128,ekl,valid,ekl,ekl99m46.avi,9,9m,89.667,3.200,1,,miss,
mm_,1,97,ekl,valid,ekl,ekl99m33.avi,9,9m,92.854,3.200,1,,miss,
mm_,1,82,fre,valid,fre,fre99m10.avi,9,9m,96.051,3.200,1,,miss,
mm_,1,89,fre,invalid,ekl,ekl99m71.avi,9,9m,99.254,3.200,1,,miss,
mm_,1,27,fre,valid,fre,fre99m03.avi,9,9m,102.470,3.200,1,,miss,
mm_,1,67,ekl,valid,ekl,ekl99m23.avi,9,9m,105.653,3.200,1,,miss,
mm_,1,58,ekl,valid,ekl,ekl99m05.avi,9,9m,108.867,3.200,1,,miss,
mm_,1,65,ekl,invalid,fre,fre99m09.avi,9,9m,112.051,3.200,1,,miss,
mm_,1,26,fre,valid,fre,fre99m15.avi,9,9m,115.271,3.200,1,,miss,
mm_,1,77,ekl,valid,ekl,ekl99m09.avi,9,9m,118.453,3.200,1,,miss,
mm_,1,37,ekl,valid,ekl,ekl99w26.avi,9,9w,121.797,3.200,1,,miss,
mm_,1,19,ekl,invalid,fre,fre99m23.avi,9,9m,124.854,3.200,1,,miss,
mm_,1,74,fre,valid,fre,fre99w58.avi,9,9w,128.073,3.200,1,,miss,
mm_,1,105,fre,valid,fre,fre99m71.avi,9,9m,131.266,3.200,1,,miss,
mm_,1,111,ekl,invalid,fre,fre99m10.avi,9,9m,134.453,3.200,1,,miss,
mm_,1,5,ekl,valid,ekl,ekl99w26.avi,9,9w,137.653,3.200,1,,miss,
mm_,1,2,fre,invalid,ekl,ekl99m24.avi,9,9m,140.854,3.200,1,,miss,
mm_,1,12,fre,valid,fre,fre99m38.avi,9,9m,144.066,3.200,1,,miss,
mm_,1,57,fre,valid,fre,fre99w04.avi,9,9w,147.266,3.200,1,,miss,
mm_,1,158,fre,invalid,ekl,ekl99m03.avi,9,9m,150.453,3.200,1,,miss,
mm_,1,142,fre,invalid,ekl,ekl99m38.avi,9,9m,153.654,3.200,1,,miss,
mm_,1,137,fre,valid,fre,fre99w08.avi,9,9w,156.868,3.200,1,,miss,
mm_,1,107,fre,valid,fre,fre99w22.avi,9,9w,160.053,3.200,1,,miss,
mm_,1,29,fre,valid,fre,fre99w16.avi,9,9w,163.272,3.200,1,,miss,
mm_,1,54,fre,valid,fre,fre99w12.avi,9,9w,166.454,3.200,1,,miss,
mm_,1,115,ekl,valid,ekl,ekl99w32.avi,9,9w,169.700,3.200,1,,miss,
mm_,1,78,fre,valid,fre,fre99m21.avi,9,9m,172.875,3.200,1,,miss,
mm_,1,96,ekl,valid,ekl,ekl99m47.avi,9,9m,176.066,3.200,1,,miss,
mm_,1,79,ekl,valid,ekl,ekl99m21.avi,9,9m,179.258,3.200,1,,miss,
mm_,1,113,fre,valid,fre,fre99m49.avi,9,9m,182.454,3.200,1,,miss,
mm_,1,17,ekl,valid,ekl,ekl99m15.avi,9,9m,185.665,3.200,1,,miss,
mm_,1,40,fre,valid,fre,fre99w57.avi,9,9w,188.870,3.200,1,,miss,
mm_,1,144,ekl,valid,ekl,ekl99w14.avi,9,9w,192.163,3.200,1,,miss,
mm_,1,106,fre,valid,fre,fre99m25.avi,9,9m,195.274,3.200,1,,miss,
mm_,1,75,fre,valid,fre,fre99w01.avi,9,9w,198.453,3.200,1,,miss,
mm_,1,157,ekl,valid,ekl,ekl99m36.avi,9,9m,201.756,3.200,1,,miss,
mm_,1,143,fre,invalid,ekl,ekl99m15.avi,9,9m,204.853,3.200,1,,miss,
mm_,1,81,fre,valid,fre,fre99w12.avi,9,9w,208.052,3.200,1,,miss,
mm_,1,146,ekl,valid,ekl,ekl99w27.avi,9,9w,211.266,3.200,1,,miss,
mm_,1,44,ekl,valid,ekl,ekl99m24.avi,9,9m,214.452,3.200,1,,miss,
mm_,1,3,fre,valid,fre,fre99w61.avi,9,9w,217.653,3.200,1,,miss,
mm_,1,118,fre,valid,fre,fre99w27.avi,9,9w,220.873,3.200,1,,miss,
mm_,1,71,ekl,valid,ekl,ekl99w58.avi,9,9w,224.072,3.200,1,,miss,
mm_,1,48,ekl,valid,ekl,ekl99w16.avi,9,9w,227.254,3.200,1,,miss,
mm_,1,99,ekl,valid,ekl,ekl99m46.avi,9,9m,230.453,3.200,1,,miss,
mm_,1,125,ekl,invalid,fre,fre99m03.avi,9,9m,233.654,3.200,1,,miss,
mm_,1,120,fre,valid,fre,fre99m20.avi,9,9m,236.855,3.200,1,,miss,
mm_,1,34,ekl,valid,ekl,ekl99m15.avi,9,9m,240.052,3.200,1,,miss,
mm_,1,53,fre,valid,fre,fre99m07.avi,9,9m,243.319,3.200,1,,miss,
mm_,1,50,ekl,valid,ekl,ekl99m49.avi,9,9m,246.457,3.200,1,,miss,
mm_,1,36,ekl,invalid,fre,fre99m38.avi,9,9m,249.654,3.200,1,,miss,
mm_,1,151,ekl,valid,ekl,ekl99m10.avi,9,9m,252.869,3.200,1,,miss,
mm_,1,149,ekl,valid,ekl,ekl99m07.avi,9,9m,256.094,3.200,1,,miss,
mm_,1,140,fre,valid,fre,fre99w02.avi,9,9w,259.254,3.200,1,,miss,
mm_,1,133,fre,valid,fre,fre99w37.avi,9,9w,262.469,3.200,1,,miss,
mm_,1,148,ekl,valid,ekl,ekl99w32.avi,9,9w,265.655,3.200,1,,miss,
mm_,1,134,ekl,valid,ekl,ekl99m28.avi,9,9m,268.854,3.200,1,,miss,
mm_,1,66,fre,valid,fre,fre99m49.avi,9,9m,272.055,3.200,1,,miss,
mm_,1,88,fre,valid,fre,fre99m33.avi,9,9m,275.254,3.200,1,,miss,
mm_,1,155,fre,invalid,ekl,ekl99m71.avi,9,9m,278.455,3.200,1,,miss,
mm_,1,70,ekl,valid,ekl,ekl99m46.avi,9,9m,281.653,3.200,1,,miss,
mm_,1,8,fre,valid,fre,fre99w58.avi,9,9w,284.854,3.200,1,,miss,
mm_,1,117,ekl,valid,ekl,ekl99w22.avi,9,9w,288.073,3.200,1,,miss,
mm_,1,60,ekl,invalid,fre,fre99m21.avi,9,9m,291.254,3.200,1,,miss,
mm_,1,95,ekl,valid,ekl,ekl99w12.avi,9,9w,294.453,3.200,1,,miss,
mm_,1,156,fre,valid,fre,fre99m09.avi,9,9m,297.655,3.200,1,,miss,
mm_,1,104,ekl,valid,ekl,ekl99m20.avi,9,9m,300.875,3.200,1,,miss,
mm_,1,87,ekl,valid,ekl,ekl99w02.avi,9,9w,304.063,3.200,1,,miss,
mm_,1,116,ekl,valid,ekl,ekl99m24.avi,9,9m,307.255,3.200,1,,miss,
mm_,1,135,fre,valid,fre,fre99m23.avi,9,9m,310.461,3.200,1,,miss,
mm_,1,15,ekl,invalid,fre,fre99m36.avi,9,9m,313.693,3.200,1,,miss,
mm_,1,30,fre,valid,fre,fre99m47.avi,9,9m,316.962,3.200,1,,miss,
mm_,1,124,fre,valid,fre,fre99w27.avi,9,9w,320.053,3.200,1,,miss,
mm_,1,61,ekl,valid,ekl,ekl99w26.avi,9,9w,323.257,3.200,1,,miss,
mm_,1,47,ekl,invalid,fre,fre99m15.avi,9,9m,326.454,3.200,1,,miss,
mm_,1,69,fre,invalid,ekl,ekl99m24.avi,9,9m,329.655,3.200,1,,miss,
mm_,1,94,fre,valid,fre,fre99w57.avi,9,9w,332.855,3.200,1,,miss,
mm_,1,114,fre,valid,fre,fre99m36.avi,9,9m,336.052,3.200,1,,miss,
mm_,1,56,fre,valid,fre,fre99m71.avi,9,9m,339.253,3.200,1,,miss,
mm_,1,132,ekl,invalid,fre,fre99m38.avi,9,9m,342.453,3.200,1,,miss,
mm_,1,52,ekl,valid,ekl,ekl99w31.avi,9,9w,345.778,3.200,1,,miss,
mm_,1,46,ekl,invalid,fre,fre99m03.avi,9,9m,348.854,3.200,1,,miss,
mm_,1,59,fre,invalid,ekl,ekl99m71.avi,9,9m,352.052,3.200,1,,miss,
mm_,1,136,fre,valid,fre,fre99m20.avi,9,9m,355.254,3.200,1,,miss,
mm_,1,7,fre,valid,fre,fre99w01.avi,9,9w,358.455,3.200,1,,miss,
mm_,1,31,ekl,invalid,fre,fre99m36.avi,9,9m,361.654,3.200,1,,miss,
mm_,1,45,fre,invalid,ekl,ekl99m25.avi,9,9m,364.871,3.200,1,,miss,
mm_,1,24,fre,valid,fre,fre99w14.avi,9,9w,368.070,3.200,1,,miss,
mm_,1,62,fre,valid,fre,fre99m24.avi,9,9m,371.253,3.200,1,,miss,
mm_,1,100,fre,valid,fre,fre99m20.avi,9,9m,374.452,3.200,1,,miss,
mm_,1,150,ekl,valid,ekl,ekl99w61.avi,9,9w,377.693,3.200,1,,miss,
mm_,1,86,ekl,invalid,fre,fre99m03.avi,9,9m,380.865,3.200,1,,miss,
mm_,1,119,ekl,invalid,fre,fre99m36.avi,9,9m,384.053,3.200,1,,miss,
mm_,1,84,fre,valid,fre,fre99m46.avi,9,9m,387.272,3.200,1,,miss,
mm_,1,49,ekl,valid,ekl,ekl99m20.avi,9,9m,390.455,3.200,1,,miss,
mm_,1,15,fre,valid,fre,fre99w58.avi,9,9w,0.079,3.200,1,,miss,
mm_,1,62,ekl,invalid,fre,fre99m25.avi,9,9m,3.342,3.200,1,,miss,
mm_,1,157,fre,valid,fre,fre99m09.avi,9,9m,6.477,3.200,1,,miss,
mm_,1,103,ekl,valid,ekl,ekl99w14.avi,9,9w,9.728,3.200,1,,miss,
mm_,1,68,ekl,valid,ekl,ekl99m46.avi,9,9m,12.863,3.200,1,,miss,
mm_,1,110,fre,valid,fre,fre99m23.avi,9,9m,16.086,3.200,1,,miss,
mm_,1,148,ekl,invalid,fre,fre99m33.avi,9,9m,19.305,3.200,1,,miss,
mm_,1,69,ekl,valid,ekl,ekl99w16.avi,9,9w,22.462,3.200,1,,miss,
mm_,1,34,fre,invalid,ekl,ekl99m15.avi,9,9m,25.707,3.200,1,,miss,
mm_,1,147,ekl,valid,ekl,ekl99m23.avi,9,9m,28.867,3.200,1,,miss,
mm_,1,160,ekl,invalid,fre,fre99m24.avi,9,9m,32.071,3.200,1,,miss,
mm_,1,28,fre,valid,fre,fre99m10.avi,9,9m,35.280,3.200,1,,miss,
mm_,1,120,fre,valid,fre,fre99m07.avi,9,9m,38.466,3.200,1,,miss,
mm_,1,134,ekl,valid,ekl,ekl99w02.avi,9,9w,41.666,3.200,1,,miss,
mm_,1,144,fre,valid,fre,fre99w04.avi,9,9w,44.863,3.200,1,,miss,
mm_,1,86,ekl,valid,ekl,ekl99m25.avi,9,9m,48.081,3.200,1,,miss,
mm_,1,131,ekl,invalid,fre,fre99m05.avi,9,9m,51.359,3.200,1,,miss,
mm_,1,47,ekl,valid,ekl,ekl99m21.avi,9,9m,54.510,3.200,1,,miss,
mm_,1,135,ekl,valid,ekl,ekl99m36.avi,9,9m,57.699,3.200,1,,miss,
mm_,1,30,ekl,valid,ekl,ekl99w61.avi,9,9w,60.869,3.200,1,,miss,
mm_,1,122,ekl,invalid,fre,fre99m23.avi,9,9m,64.053,3.200,1,,miss,
mm_,1,8,fre,valid,fre,fre99m21.avi,9,9m,67.264,3.200,1,,miss,
mm_,1,22,ekl,valid,ekl,ekl99w26.avi,9,9w,70.470,3.200,1,,miss,
mm_,1,106,ekl,valid,ekl,ekl99m03.avi,9,9m,73.653,3.200,1,,miss,
mm_,1,90,ekl,valid,ekl,ekl99w01.avi,9,9w,76.876,3.200,1,,miss,
mm_,1,136,ekl,valid,ekl,ekl99w12.avi,9,9w,80.058,3.200,1,,miss,
mm_,1,150,fre,valid,fre,fre99w26.avi,9,9w,83.368,3.200,1,,miss,
mm_,1,81,ekl,valid,ekl,ekl99m30.avi,9,9m,86.476,3.200,1,,miss,
mm_,1,42,fre,invalid,ekl,ekl99m33.avi,9,9m,89.721,3.200,1,,miss,
mm_,1,37,ekl,valid,ekl,ekl99m20.avi,9,9m,92.876,3.200,1,,miss,
mm_,1,3,ekl,valid,ekl,ekl99w16.avi,9,9w,96.055,3.200,1,,miss,
mm_,1,44,ekl,valid,ekl,ekl99w57.avi,9,9w,99.354,3.200,1,,miss,
mm_,1,128,fre,valid,fre,fre99m10.avi,9,9m,102.454,3.200,1,,miss,
mm_,1,57,fre,valid,fre,fre99m46.avi,9,9m,105.703,3.200,1,,miss,
mm_,1,145,ekl,valid,ekl,ekl99m24.avi,9,9m,108.878,3.200,1,,miss,
mm_,1,80,ekl,valid,ekl,ekl99m28.avi,9,9m,112.067,3.200,1,,miss,
mm_,1,113,ekl,valid,ekl,ekl99w12.avi,9,9w,115.806,3.200,1,,miss,
mm_,1,59,fre,valid,fre,fre99w26.avi,9,9w,120.033,3.200,1,,miss,
mm_,1,92,ekl,valid,ekl,ekl99m07.avi,9,9m,121.681,3.200,1,,miss,
mm_,1,9,ekl,valid,ekl,ekl99m28.avi,9,9m,124.855,3.200,1,,miss,
mm_,1,73,ekl,valid,ekl,ekl99w19.avi,9,9w,128.070,3.200,1,,miss,
mm_,1,17,ekl,valid,ekl,ekl99m05.avi,9,9m,131.468,3.200,1,,miss,
mm_,1,104,ekl,valid,ekl,ekl99m21.avi,9,9m,134.454,3.200,1,,miss,
mm_,1,51,ekl,invalid,fre,fre99m23.avi,9,9m,137.656,3.200,1,,miss,
mm_,1,158,ekl,valid,ekl,ekl99m09.avi,9,9m,140.864,3.200,1,,miss,
mm_,1,102,fre,valid,fre,fre99w01.avi,9,9w,144.065,3.200,1,,miss,
mm_,1,132,fre,valid,fre,fre99m46.avi,9,9m,147.254,3.200,1,,miss,
mm_,1,118,ekl,invalid,fre,fre99m21.avi,9,9m,150.455,3.200,1,,miss,
mm_,1,50,fre,invalid,ekl,ekl99m36.avi,9,9m,153.656,3.200,1,,miss,
mm_,1,141,fre,invalid,ekl,ekl99m21.avi,9,9m,156.852,3.200,1,,miss,
mm_,1,66,fre,valid,fre,fre99w04.avi,9,9w,160.053,3.200,1,,miss,
mm_,1,95,ekl,valid,ekl,ekl99w08.avi,9,9w,163.355,3.200,1,,miss,
mm_,1,18,ekl,valid,ekl,ekl99m24.avi,9,9m,166.454,3.200,1,,miss,
mm_,1,97,fre,valid,fre,fre99m24.avi,9,9m,169.656,3.200,1,,miss,
mm_,1,146,fre,valid,fre,fre99w12.avi,9,9w,172.870,3.200,1,,miss,
mm_,1,109,fre,invalid,ekl,ekl99m05.avi,9,9m,176.056,3.200,1,,miss,
mm_,1,123,ekl,invalid,fre,fre99m47.avi,9,9m,179.261,3.200,1,,miss,
mm_,1,13,fre,valid,fre,fre99w08.avi,9,9w,182.472,3.200,1,,miss,
mm_,1,24,fre,valid,fre,fre99w32.avi,9,9w,185.669,3.200,1,,miss,
mm_,1,20,fre,valid,fre,fre99m28.avi,9,9m,188.869,3.200,1,,miss,
mm_,1,138,ekl,invalid,fre,fre99m28.avi,9,9m,192.054,3.200,1,,miss,
mm_,1,43,fre,valid,fre,fre99w57.avi,9,9w,195.328,3.200,1,,miss,
mm_,1,143,ekl,valid,ekl,ekl99w32.avi,9,9w,198.482,3.200,1,,miss,
mm_,1,152,ekl,invalid,fre,fre99m47.avi,9,9m,201.653,3.200,1,,miss,
mm_,1,10,ekl,valid,ekl,ekl99w18.avi,9,9w,204.928,3.200,1,,miss,
mm_,1,60,fre,valid,fre,fre99w57.avi,9,9w,208.055,3.200,1,,miss,
mm_,1,67,fre,valid,fre,fre99w27.avi,9,9w,211.320,3.200,1,,miss,
mm_,1,79,ekl,valid,ekl,ekl99m46.avi,9,9m,214.456,3.200,1,,miss,
mm_,1,85,fre,valid,fre,fre99m30.avi,9,9m,217.684,3.200,1,,miss,
mm_,1,39,ekl,valid,ekl,ekl99m21.avi,9,9m,220.855,3.200,1,,miss,
mm_,1,142,fre,valid,fre,fre99w61.avi,9,9w,224.069,3.200,1,,miss,
mm_,1,77,fre,valid,fre,fre99m15.avi,9,9m,227.527,3.200,1,,miss,
mm_,1,76,ekl,invalid,fre,fre99m21.avi,9,9m,230.453,3.200,1,,miss,
mm_,1,19,ekl,valid,ekl,ekl99m25.avi,9,9m,233.656,3.200,1,,miss,
mm_,1,23,fre,invalid,ekl,ekl99m09.avi,9,9m,237.109,3.200,1,,miss,
mm_,1,129,ekl,valid,ekl,ekl99w32.avi,9,9w,241.211,3.200,1,,miss,
mm_,1,41,fre,invalid,ekl,ekl99m09.avi,9,9m,243.255,3.200,1,,miss,
mm_,1,117,ekl,valid,ekl,ekl99w58.avi,9,9w,246.473,3.200,1,,miss,
mm_,1,5,fre,valid,fre,fre99w02.avi,9,9w,249.705,3.200,1,,miss,
mm_,1,54,fre,invalid,ekl,ekl99m24.avi,9,9m,252.853,3.200,1,,miss,
mm_,1,52,ekl,invalid,fre,fre99m07.avi,9,9m,256.056,3.200,1,,miss,
mm_,1,155,ekl,valid,ekl,ekl99m10.avi,9,9m,259.513,3.200,1,,miss,
mm_,1,35,ekl,valid,ekl,ekl99w14.avi,9,9w,262.454,3.200,1,,miss,
mm_,1,119,fre,valid,fre,fre99w61.avi,9,9w,265.655,3.200,1,,miss,
mm_,1,156,fre,invalid,ekl,ekl99m24.avi,9,9m,268.855,3.200,1,,miss,
mm_,1,127,ekl,valid,ekl,ekl99m47.avi,9,9m,272.072,3.200,1,,miss,
mm_,1,78,ekl,valid,ekl,ekl99m15.avi,9,9m,275.253,3.200,1,,miss,
mm_,1,87,fre,valid,fre,fre99w37.avi,9,9w,278.475,3.200,1,,miss,
mm_,1,94,fre,valid,fre,fre99m05.avi,9,9m,281.653,3.200,1,,miss,
mm_,1,49,fre,invalid,ekl,ekl99m09.avi,9,9m,284.853,3.200,1,,miss,
mm_,1,137,fre,valid,fre,fre99w31.avi,9,9w,288.090,3.200,1,,miss,
mm_,1,63,ekl,valid,ekl,ekl99w32.avi,9,9w,291.255,3.200,1,,miss,
mm_,1,16,ekl,invalid,fre,fre99m07.avi,9,9m,294.455,3.200,1,,miss,
mm_,1,130,fre,valid,fre,fre99m03.avi,9,9m,297.673,3.200,1,,miss,
mm_,1,70,ekl,invalid,fre,fre99m23.avi,9,9m,300.853,3.200,1,,miss,
mm_,1,55,ekl,invalid,fre,fre99m28.avi,9,9m,304.054,3.200,1,,miss,
mm_,1,126,ekl,valid,ekl,ekl99w27.avi,9,9w,307.689,3.200,1,,miss,
mm_,1,111,fre,valid,fre,fre99m24.avi,9,9m,310.452,3.200,1,,miss,
mm_,1,1,fre,valid,fre,fre99m47.avi,9,9m,313.654,3.200,1,,miss,
mm_,1,74,ekl,valid,ekl,ekl99m46.avi,9,9m,316.854,3.200,1,,miss,
mm_,1,7,fre,valid,fre,fre99w56.avi,9,9w,320.099,3.200,1,,miss,
mm_,1,115,fre,valid,fre,fre99m25.avi,9,9m,323.383,3.200,1,,miss,
mm_,1,89,ekl,valid,ekl,ekl99m33.avi,9,9m,326.480,3.200,1,,miss,
mm_,1,21,fre,invalid,ekl,ekl99m36.avi,9,9m,329.653,3.200,1,,miss,
mm_,1,4,ekl,valid,ekl,ekl99w37.avi,9,9w,332.857,3.200,1,,miss,
mm_,1,40,fre,valid,fre,fre99w19.avi,9,9w,336.082,3.200,1,,miss,
mm_,1,38,ekl,valid,ekl,ekl99w58.avi,9,9w,339.286,3.200,1,,miss,
mm_,1,72,fre,valid,fre,fre99m23.avi,9,9m,342.453,3.200,1,,miss,
mm_,1,82,ekl,valid,ekl,ekl99w56.avi,9,9w,345.697,3.200,1,,miss,
mm_,1,31,fre,invalid,ekl,ekl99m71.avi,9,9m,348.875,3.200,1,,miss,
mm_,1,65,ekl,invalid,fre,fre99m09.avi,9,9m,352.061,3.200,1,,miss,
mm_,1,93,ekl,valid,ekl,ekl99w31.avi,9,9w,355.331,3.200,1,,miss,
mm_,1,139,fre,invalid,ekl,ekl99m47.avi,9,9m,358.830,3.200,1,,miss,
mm_,1,56,fre,valid,fre,fre99m09.avi,9,9m,362.189,3.200,1,,miss,
mm_,1,108,fre,valid,fre,fre99w14.avi,9,9w,366.335,3.200,1,,miss,
mm_,1,64,fre,valid,fre,fre99m05.avi,9,9m,368.068,3.200,1,,miss,
mm_,1,98,fre,valid,fre,fre99w61.avi,9,9w,372.028,3.200,1,,miss,
mm_,1,53,fre,invalid,ekl,ekl99m24.avi,9,9m,374.454,3.200,1,,miss,
mm_,1,159,fre,invalid,ekl,ekl99m38.avi,9,9m,377.675,3.200,1,,miss,
mm_,1,33,fre,valid,fre,fre99m20.avi,9,9m,380.942,3.200,1,,miss,
mm_,1,107,fre,valid,fre,fre99m28.avi,9,9m,384.053,3.200,1,,miss,
mm_,1,32,fre,valid,fre,fre99w27.avi,9,9w,387.254,3.200,1,,miss,
mm_,1,116,ekl,valid,ekl,ekl99m71.avi,9,9m,390.463,3.200,1,,miss,
mm_,1,25,ekl,valid,ekl,ekl99m38.avi,9,9m,393.653,3.200,1,,miss,
mm_,1,153,ekl,invalid,fre,fre99m24.avi,9,9m,396.852,3.200,1,,miss,
mm_,1,61,fre,valid,fre,fre99m71.avi,9,9m,400.087,3.200,1,,miss,
mm_,1,84,ekl,invalid,fre,fre99m49.avi,9,9m,403.286,3.200,1,,miss,
mm_,1,101,fre,invalid,ekl,ekl99m20.avi,9,9m,406.452,3.200,1,,miss,
mm_,1,26,ekl,valid,ekl,ekl99m36.avi,9,9m,409.653,3.200,1,,miss,
mm_,1,46,ekl,valid,ekl,ekl99m05.avi,9,9m,412.854,3.200,1,,miss,
mm_,1,121,ekl,invalid,fre,fre99m46.avi,9,9m,416.052,3.200,1,,miss,
mm_,1,6,ekl,valid,ekl,ekl99w18.avi,9,9w,419.359,3.200,1,,miss,
mm_,1,125,ekl,valid,ekl,ekl99m71.avi,9,9m,422.454,3.200,1,,miss,
mm_,1,83,fre,invalid,ekl,ekl99m23.avi,9,9m,425.655,3.200,1,,miss,
mm_,1,100,ekl,valid,ekl,ekl99w04.avi,9,9w,428.868,3.200,1,,miss,
mm_,1,45,fre,valid,fre,fre99w32.avi,9,9w,432.052,3.200,1,,miss,
mm_,1,27,fre,invalid,ekl,ekl99m20.avi,9,9m,435.254,3.200,1,,miss,
mm_,1,149,ekl,valid,ekl,ekl99w04.avi,9,9w,438.453,3.200,1,,miss,
mm_,1,91,fre,valid,fre,fre99w18.avi,9,9w,441.675,3.200,1,,miss,
mm_,1,2,ekl,valid,ekl,ekl99w27.avi,9,9w,444.868,3.200,1,,miss,
mm_,1,58,fre,valid,fre,fre99w01.avi,9,9w,448.080,3.200,1,,miss,
mm_,1,154,fre,invalid,ekl,ekl99m05.avi,9,9m,451.259,3.200,1,,miss,
mm_,1,48,fre,valid,fre,fre99w37.avi,9,9w,454.451,3.200,1,,miss,
mm_,1,29,ekl,valid,ekl,ekl99w37.avi,9,9w,457.679,3.200,1,,miss,
mm_,1,151,fre,valid,fre,fre99w22.avi,9,9w,460.864,3.200,1,,miss,
mm_,1,124,ekl,invalid,fre,fre99m71.avi,9,9m,464.054,3.200,1,,miss,
mm_,1,88,ekl,valid,ekl,ekl99w22.avi,9,9w,467.265,3.200,1,,miss,
mm_,1,105,fre,valid,fre,fre99m49.avi,9,9m,470.524,3.200,1,,miss,
mm_,1,12,fre,valid,fre,fre99m33.avi,9,9m,473.697,3.200,1,,miss,
mm_,1,133,ekl,valid,ekl,ekl99w02.avi,9,9w,476.864,3.200,1,,miss,
mm_,1,99,ekl,valid,ekl,ekl99m49.avi,9,9m,480.422,3.200,1,,miss,
mm_,1,96,fre,valid,fre,fre99w18.avi,9,9w,483.273,3.200,1,,miss,
mm_,1,140,fre,valid,fre,fre99w27.avi,9,9w,486.454,3.200,1,,miss,
mm_,1,11,fre,valid,fre,fre99m23.avi,9,9m,489.656,3.200,1,,miss,
mm_,1,114,fre,valid,fre,fre99m33.avi,9,9m,493.321,3.200,1,,miss,
mm_,1,71,fre,valid,fre,fre99m47.avi,9,9m,496.053,3.200,1,,miss,
mm_,1,14,fre,valid,fre,fre99w16.avi,9,9w,499.262,3.200,1,,miss,
mm_,1,112,fre,invalid,ekl,ekl99m15.avi,9,9m,502.455,3.200,1,,miss,
mm_,1,75,fre,valid,fre,fre99m38.avi,9,9m,505.669,3.200,1,,miss,
mm_,1,36,fre,valid,fre,fre99m36.avi,9,9m,508.868,3.200,1,,miss,
subjid,session,block,trialno,texpr,validity,pexpr,stimf,sex,id,onset,dur,corr_resp,subj_resp,accuracy,rt
mm_,1,emo_fac,11,fre,valid,fre,fre99w37.avi,9,9w,0.062,3.200,1,,miss,
mm_,1,emo_fac,4,fre,valid,fre,fre99w18.avi,9,9w,3.312,3.200,1,,miss,
mm_,1,emo_fac,114,ekl,valid,ekl,ekl99w14.avi,9,9w,6.563,3.200,1,,miss,
mm_,1,emo_fac,13,ekl,valid,ekl,ekl99w12.avi,9,9w,9.669,3.200,1,,miss,
mm_,1,emo_fac,26,ekl,valid,ekl,ekl99w61.avi,9,9w,12.863,3.200,1,,miss,
mm_,1,emo_fac,148,ekl,valid,ekl,ekl99w27.avi,9,9w,16.065,3.200,1,,miss,
mm_,1,emo_fac,41,ekl,valid,ekl,ekl99w37.avi,9,9w,19.268,3.200,1,,miss,
mm_,1,emo_fac,55,ekl,valid,ekl,ekl99m36.avi,9,9m,22.464,3.200,1,,miss,
mm_,1,emo_fac,15,ekl,invalid,fre,fre99m71.avi,9,9m,25.668,3.200,1,,miss,
mm_,1,emo_fac,108,fre,valid,fre,fre99w31.avi,9,9w,28.990,3.200,1,,miss,
mm_,1,emo_fac,8,fre,valid,fre,fre99w57.avi,9,9w,32.064,3.200,1,,miss,
mm_,1,emo_fac,107,ekl,invalid,fre,fre99m09.avi,9,9m,35.268,3.200,1,,miss,
mm_,1,emo_fac,56,fre,valid,fre,fre99w08.avi,9,9w,38.469,3.200,1,,miss,
mm_,1,emo_fac,121,fre,invalid,ekl,ekl99m10.avi,9,9m,41.673,3.200,1,,miss,
mm_,1,emo_fac,25,fre,valid,fre,fre99m49.avi,9,9m,44.871,3.200,1,,miss,
mm_,1,emo_fac,105,fre,valid,fre,fre99m24.avi,9,9m,48.070,3.200,1,,miss,
mm_,1,emo_fac,159,ekl,valid,ekl,ekl99m05.avi,9,9m,51.259,3.200,1,,miss,
mm_,1,emo_fac,98,ekl,valid,ekl,ekl99w02.avi,9,9w,54.464,3.200,1,,miss,
mm_,1,emo_fac,132,ekl,valid,ekl,ekl99w12.avi,9,9w,57.652,3.200,1,,miss,
mm_,1,emo_fac,38,fre,valid,fre,fre99m25.avi,9,9m,60.871,3.200,1,,miss,
mm_,1,emo_fac,21,ekl,valid,ekl,ekl99m20.avi,9,9m,64.075,3.200,1,,miss,
mm_,1,emo_fac,130,fre,valid,fre,fre99w37.avi,9,9w,67.253,3.200,1,,miss,
mm_,1,emo_fac,84,ekl,valid,ekl,ekl99m07.avi,9,9m,70.460,3.200,1,,miss,
mm_,1,emo_fac,100,ekl,valid,ekl,ekl99m24.avi,9,9m,73.668,3.200,1,,miss,
mm_,1,emo_fac,93,fre,valid,fre,fre99m30.avi,9,9m,76.866,3.200,1,,miss,
mm_,1,emo_fac,42,fre,valid,fre,fre99w56.avi,9,9w,80.066,3.200,1,,miss,
mm_,1,emo_fac,109,ekl,valid,ekl,ekl99m25.avi,9,9m,83.272,3.200,1,,miss,
mm_,1,emo_fac,74,ekl,valid,ekl,ekl99w22.avi,9,9w,86.470,3.200,1,,miss,
mm_,1,emo_fac,83,fre,valid,fre,fre99m28.avi,9,9m,89.676,3.200,1,,miss,
mm_,1,emo_fac,39,ekl,invalid,fre,fre99m46.avi,9,9m,92.860,3.200,1,,miss,
mm_,1,emo_fac,146,fre,valid,fre,fre99m20.avi,9,9m,96.097,3.200,1,,miss,
mm_,1,emo_fac,129,ekl,invalid,fre,fre99m49.avi,9,9m,99.253,3.200,1,,miss,
mm_,1,emo_fac,30,fre,valid,fre,fre99m36.avi,9,9m,102.453,3.200,1,,miss,
mm_,1,emo_fac,48,ekl,valid,ekl,ekl99w12.avi,9,9w,105.652,3.200,1,,miss,
mm_,1,emo_fac,111,ekl,valid,ekl,ekl99w04.avi,9,9w,108.866,3.200,1,,miss,
mm_,1,emo_fac,95,fre,valid,fre,fre99m10.avi,9,9m,112.063,3.200,1,,miss,
mm_,1,emo_fac,81,ekl,invalid,fre,fre99m25.avi,9,9m,115.253,3.200,1,,miss,
mm_,1,emo_fac,157,ekl,invalid,fre,fre99m47.avi,9,9m,118.457,3.200,1,,miss,
mm_,1,emo_fac,69,fre,valid,fre,fre99w31.avi,9,9w,121.658,3.200,1,,miss,
mm_,1,emo_fac,149,fre,valid,fre,fre99w61.avi,9,9w,124.877,3.200,1,,miss,
mm_,1,emo_fac,57,ekl,valid,ekl,ekl99m36.avi,9,9m,128.055,3.200,1,,miss,
mm_,1,emo_fac,89,ekl,invalid,fre,fre99m07.avi,9,9m,131.277,3.200,1,,miss,
mm_,1,emo_fac,124,ekl,valid,ekl,ekl99w58.avi,9,9w,134.477,3.200,1,,miss,
mm_,1,emo_fac,97,ekl,valid,ekl,ekl99w18.avi,9,9w,137.670,3.200,1,,miss,
mm_,1,emo_fac,6,fre,valid,fre,fre99m24.avi,9,9m,140.852,3.200,1,,miss,
mm_,1,emo_fac,34,fre,valid,fre,fre99w16.avi,9,9w,144.071,3.200,1,,miss,
mm_,1,emo_fac,80,fre,invalid,ekl,ekl99m38.avi,9,9m,147.263,3.200,1,,miss,
mm_,1,emo_fac,45,fre,invalid,ekl,ekl99m38.avi,9,9m,150.453,3.200,1,,miss,
mm_,1,emo_fac,40,ekl,valid,ekl,ekl99m20.avi,9,9m,153.653,3.200,1,,miss,
mm_,1,emo_fac,49,fre,invalid,ekl,ekl99m09.avi,9,9m,156.871,3.200,1,,miss,
mm_,1,emo_fac,14,ekl,valid,ekl,ekl99w61.avi,9,9w,160.054,3.200,1,,miss,
mm_,1,emo_fac,53,fre,valid,fre,fre99w61.avi,9,9w,163.255,3.200,1,,miss,
mm_,1,emo_fac,67,ekl,valid,ekl,ekl99w26.avi,9,9w,166.515,3.200,1,,miss,
mm_,1,emo_fac,104,fre,invalid,ekl,ekl99m10.avi,9,9m,169.653,3.200,1,,miss,
mm_,1,emo_fac,17,ekl,valid,ekl,ekl99w56.avi,9,9w,172.866,3.200,1,,miss,
mm_,1,emo_fac,102,fre,valid,fre,fre99m46.avi,9,9m,176.053,3.200,1,,miss,
mm_,1,emo_fac,36,ekl,valid,ekl,ekl99m21.avi,9,9m,179.271,3.200,1,,miss,
mm_,1,emo_fac,1,ekl,valid,ekl,ekl99w31.avi,9,9w,182.468,3.200,1,,miss,
mm_,1,emo_fac,87,fre,valid,fre,fre99w04.avi,9,9w,185.667,3.200,1,,miss,
mm_,1,emo_fac,66,ekl,valid,ekl,ekl99m30.avi,9,9m,188.869,3.200,1,,miss,
mm_,1,emo_fac,147,fre,valid,fre,fre99m33.avi,9,9m,192.068,3.200,1,,miss,
mm_,1,emo_fac,65,ekl,valid,ekl,ekl99w08.avi,9,9w,195.271,3.200,1,,miss,
mm_,1,emo_fac,126,fre,valid,fre,fre99m07.avi,9,9m,198.453,3.200,1,,miss,
mm_,1,emo_fac,68,fre,valid,fre,fre99w27.avi,9,9w,201.673,3.200,1,,miss,
mm_,1,emo_fac,77,fre,valid,fre,fre99w37.avi,9,9w,204.853,3.200,1,,miss,
mm_,1,emo_fac,61,fre,valid,fre,fre99m33.avi,9,9m,208.056,3.200,1,,miss,
mm_,1,emo_fac,134,fre,valid,fre,fre99m38.avi,9,9m,211.272,3.200,1,,miss,
mm_,1,emo_fac,20,ekl,valid,ekl,ekl99w37.avi,9,9w,214.452,3.200,1,,miss,
mm_,1,emo_fac,73,fre,valid,fre,fre99m09.avi,9,9m,217.656,3.200,1,,miss,
mm_,1,emo_fac,128,fre,invalid,ekl,ekl99m15.avi,9,9m,220.874,3.200,1,,miss,
mm_,1,emo_fac,113,fre,valid,fre,fre99m25.avi,9,9m,224.052,3.200,1,,miss,
mm_,1,emo_fac,85,ekl,invalid,fre,fre99m03.avi,9,9m,227.272,3.200,1,,miss,
mm_,1,emo_fac,72,fre,invalid,ekl,ekl99m24.avi,9,9m,230.456,3.200,1,,miss,
mm_,1,emo_fac,142,fre,valid,fre,fre99w08.avi,9,9w,233.653,3.200,1,,miss,
mm_,1,emo_fac,141,ekl,valid,ekl,ekl99m15.avi,9,9m,236.853,3.200,1,,miss,
mm_,1,emo_fac,18,fre,invalid,ekl,ekl99m21.avi,9,9m,240.053,3.200,1,,miss,
mm_,1,emo_fac,135,ekl,valid,ekl,ekl99m46.avi,9,9m,243.694,3.200,1,,miss,
mm_,1,emo_fac,51,fre,valid,fre,fre99m09.avi,9,9m,246.453,3.200,1,,miss,
mm_,1,emo_fac,140,fre,valid,fre,fre99m36.avi,9,9m,249.653,3.200,1,,miss,
mm_,1,emo_fac,79,fre,valid,fre,fre99w12.avi,9,9w,252.869,3.200,1,,miss,
mm_,1,emo_fac,16,fre,invalid,ekl,ekl99m38.avi,9,9m,256.053,3.200,1,,miss,
mm_,1,emo_fac,43,ekl,invalid,fre,fre99m47.avi,9,9m,259.254,3.200,1,,miss,
mm_,1,emo_fac,122,fre,valid,fre,fre99w32.avi,9,9w,262.460,3.200,1,,miss,
mm_,1,emo_fac,63,fre,valid,fre,fre99w04.avi,9,9w,265.653,3.200,1,,miss,
mm_,1,emo_fac,71,ekl,invalid,fre,fre99m71.avi,9,9m,268.857,3.200,1,,miss,
mm_,1,emo_fac,152,ekl,valid,ekl,ekl99m20.avi,9,9m,272.054,3.200,1,,miss,
mm_,1,emo_fac,112,ekl,invalid,fre,fre99m21.avi,9,9m,275.267,3.200,1,,miss,
mm_,1,emo_fac,91,ekl,invalid,fre,fre99m20.avi,9,9m,278.453,3.200,1,,miss,
mm_,1,emo_fac,101,ekl,invalid,fre,fre99m49.avi,9,9m,281.653,3.200,1,,miss,
mm_,1,emo_fac,44,ekl,valid,ekl,ekl99m23.avi,9,9m,284.867,3.200,1,,miss,
mm_,1,emo_fac,9,fre,invalid,ekl,ekl99m03.avi,9,9m,288.053,3.200,1,,miss,
mm_,1,emo_fac,123,fre,invalid,ekl,ekl99m71.avi,9,9m,291.272,3.200,1,,miss,
mm_,1,emo_fac,59,ekl,valid,ekl,ekl99m09.avi,9,9m,294.453,3.200,1,,miss,
mm_,1,emo_fac,70,ekl,valid,ekl,ekl99w19.avi,9,9w,297.668,3.200,1,,miss,
mm_,1,emo_fac,138,ekl,valid,ekl,ekl99w18.avi,9,9w,300.859,3.200,1,,miss,
mm_,1,emo_fac,145,ekl,valid,ekl,ekl99w01.avi,9,9w,304.064,3.200,1,,miss,
mm_,1,emo_fac,75,fre,valid,fre,fre99m07.avi,9,9m,307.255,3.200,1,,miss,
mm_,1,emo_fac,131,ekl,invalid,fre,fre99m15.avi,9,9m,310.469,3.200,1,,miss,
mm_,1,emo_fac,58,fre,valid,fre,fre99w14.avi,9,9w,313.664,3.200,1,,miss,
mm_,1,emo_fac,50,fre,valid,fre,fre99m15.avi,9,9m,316.852,3.200,1,,miss,
mm_,1,emo_fac,118,fre,valid,fre,fre99w56.avi,9,9w,320.055,3.200,1,,miss,
mm_,1,emo_fac,133,fre,valid,fre,fre99m20.avi,9,9m,323.254,3.200,1,,miss,
mm_,1,emo_fac,78,fre,valid,fre,fre99m05.avi,9,9m,326.471,3.200,1,,miss,
mm_,1,emo_fac,52,ekl,valid,ekl,ekl99w56.avi,9,9w,329.654,3.200,1,,miss,
mm_,1,emo_fac,27,ekl,invalid,fre,fre99m47.avi,9,9m,332.856,3.200,1,,miss,
mm_,1,emo_fac,64,ekl,invalid,fre,fre99m46.avi,9,9m,336.055,3.200,1,,miss,
mm_,1,emo_fac,115,ekl,valid,ekl,ekl99m49.avi,9,9m,339.261,3.200,1,,miss,
mm_,1,emo_fac,62,fre,valid,fre,fre99w22.avi,9,9w,342.469,3.200,1,,miss,
mm_,1,emo_fac,151,fre,invalid,ekl,ekl99m47.avi,9,9m,345.661,3.200,1,,miss,
mm_,1,emo_fac,150,fre,valid,fre,fre99m47.avi,9,9m,348.852,3.200,1,,miss,
mm_,1,emo_fac,160,ekl,valid,ekl,ekl99m38.avi,9,9m,352.053,3.200,1,,miss,
mm_,1,emo_fac,86,fre,valid,fre,fre99w08.avi,9,9w,355.253,3.200,1,,miss,
mm_,1,emo_fac,99,fre,valid,fre,fre99w02.avi,9,9w,358.510,3.200,1,,miss,
mm_,1,emo_fac,3,ekl,valid,ekl,ekl99m25.avi,9,9m,361.653,3.200,1,,miss,
mm_,1,emo_fac,2,fre,valid,fre,fre99m71.avi,9,9m,365.258,3.200,1,,miss,
mm_,1,emo_fac,7,ekl,valid,ekl,ekl99m10.avi,9,9m,368.053,3.200,1,,miss,
mm_,1,emo_fac,103,fre,valid,fre,fre99w22.avi,9,9w,371.253,3.200,1,,miss,
mm_,1,emo_fac,110,ekl,valid,ekl,ekl99w16.avi,9,9w,374.565,3.200,1,,miss,
mm_,1,emo_fac,143,ekl,valid,ekl,ekl99w02.avi,9,9w,377.653,3.200,1,,miss,
mm_,1,emo_fac,76,ekl,valid,ekl,ekl99m28.avi,9,9m,380.870,3.200,1,,miss,
mm_,1,emo_fac,23,ekl,valid,ekl,ekl99m49.avi,9,9m,384.052,3.200,1,,miss,
mm_,1,emo_fac,19,ekl,valid,ekl,ekl99m33.avi,9,9m,387.267,3.200,1,,miss,
mm_,1,emo_fac,96,fre,invalid,ekl,ekl99m21.avi,9,9m,390.452,3.200,1,,miss,
mm_,1,emo_fac,106,fre,valid,fre,fre99w26.avi,9,9w,393.677,3.200,1,,miss,
mm_,1,emo_fac,31,fre,valid,fre,fre99w01.avi,9,9w,396.868,3.200,1,,miss,
mm_,1,emo_fac,125,ekl,valid,ekl,ekl99m03.avi,9,9m,400.053,3.200,1,,miss,
mm_,1,emo_fac,60,ekl,valid,ekl,ekl99w32.avi,9,9w,403.261,3.200,1,,miss,
mm_,1,emo_fac,54,ekl,valid,ekl,ekl99m10.avi,9,9m,406.452,3.200,1,,miss,
mm_,1,emo_fac,92,fre,invalid,ekl,ekl99m47.avi,9,9m,409.652,3.200,1,,miss,
mm_,1,emo_fac,47,ekl,valid,ekl,ekl99w57.avi,9,9w,412.868,3.200,1,,miss,
mm_,1,emo_fac,94,fre,valid,fre,fre99w16.avi,9,9w,416.052,3.200,1,,miss,
mm_,1,emo_fac,10,fre,invalid,ekl,ekl99m15.avi,9,9m,419.253,3.200,1,,miss,
mm_,1,emo_fac,116,ekl,valid,ekl,ekl99m49.avi,9,9m,422.452,3.200,1,,miss,
mm_,1,emo_fac,155,ekl,invalid,fre,fre99m23.avi,9,9m,425.673,3.200,1,,miss,
mm_,1,emo_fac,29,fre,valid,fre,fre99m46.avi,9,9m,428.854,3.200,1,,miss,
mm_,1,emo_fac,90,fre,valid,fre,fre99m23.avi,9,9m,432.053,3.200,1,,miss,
mm_,1,emo_fac,33,fre,invalid,ekl,ekl99m47.avi,9,9m,435.253,3.200,1,,miss,
mm_,1,emo_fac,136,fre,invalid,ekl,ekl99m15.avi,9,9m,438.451,3.200,1,,miss,
mm_,1,emo_fac,28,ekl,valid,ekl,ekl99w22.avi,9,9w,441.654,3.200,1,,miss,
mm_,1,emo_fac,119,fre,invalid,ekl,ekl99m10.avi,9,9m,444.853,3.200,1,,miss,
mm_,1,emo_fac,139,ekl,valid,ekl,ekl99w57.avi,9,9w,448.053,3.200,1,,miss,
mm_,1,emo_fac,88,ekl,valid,ekl,ekl99m47.avi,9,9m,451.254,3.200,1,,miss,
mm_,1,emo_fac,35,fre,valid,fre,fre99m21.avi,9,9m,454.452,3.200,1,,miss,
mm_,1,emo_fac,37,fre,valid,fre,fre99w08.avi,9,9w,457.652,3.200,1,,miss,
mm_,1,emo_fac,127,ekl,invalid,fre,fre99m38.avi,9,9m,460.852,3.200,1,,miss,
mm_,1,emo_fac,156,ekl,valid,ekl,ekl99m23.avi,9,9m,464.052,3.200,1,,miss,
mm_,1,emo_fac,24,ekl,invalid,fre,fre99m21.avi,9,9m,467.252,3.200,1,,miss,
mm_,1,emo_fac,137,ekl,invalid,fre,fre99m71.avi,9,9m,470.453,3.200,1,,miss,
mm_,1,emo_fac,12,ekl,valid,ekl,ekl99m71.avi,9,9m,473.654,3.200,1,,miss,
mm_,1,emo_fac,117,fre,invalid,ekl,ekl99m71.avi,9,9m,476.852,3.200,1,,miss,
mm_,1,emo_fac,82,fre,valid,fre,fre99m03.avi,9,9m,480.054,3.200,1,,miss,
mm_,1,emo_fac,120,fre,valid,fre,fre99w19.avi,9,9w,483.268,3.200,1,,miss,
mm_,1,emo_fac,154,ekl,valid,ekl,ekl99w37.avi,9,9w,486.456,3.200,1,,miss,
mm_,1,emo_fac,153,ekl,valid,ekl,ekl99w31.avi,9,9w,489.653,3.200,1,,miss,
mm_,1,emo_fac,158,ekl,valid,ekl,ekl99m30.avi,9,9m,492.855,3.200,1,,miss,
mm_,1,emo_fac,32,fre,invalid,ekl,ekl99m49.avi,9,9m,496.053,3.200,1,,miss,
mm_,1,emo_fac,144,fre,valid,fre,fre99w58.avi,9,9w,499.341,3.200,1,,miss,
mm_,1,emo_fac,46,ekl,valid,ekl,ekl99m23.avi,9,9m,502.452,3.200,1,,miss,
mm_,1,emo_fac,22,fre,valid,fre,fre99m09.avi,9,9m,505.653,3.200,1,,miss,
mm_,1,emo_fac,5,fre,valid,fre,fre99m28.avi,9,9m,508.854,3.200,1,,miss,
subjid,session,block,trialno,texpr,validity,pexpr,stimf,sex,id,onset,dur,corr_resp,subj_resp,accuracy,rt
mm_,1,emo_fac,1,fre,invalid,ekl,ekl99m33.avi,9,9m,0.085,3.000,1,,miss,
mm_,1,emo_fac,93,ekl,valid,ekl,ekl99m24.avi,9,9m,3.177,3.000,1,,miss,
mm_,1,emo_fac,39,fre,invalid,ekl,ekl99m05.avi,9,9m,6.064,3.000,1,,miss,
mm_,1,emo_fac,160,ekl,valid,ekl,ekl99w26.avi,9,9w,9.066,3.000,1,,miss,
subjid,session,block,trialno,texpr,validity,pexpr,stimf,sex,id,onset,dur,corr_resp,subj_resp,accuracy,rt
mm_,1,emo_fac,87,fre,invalid,ekl,ekl99m36.avi,9,9m,0.070,2.500,1,,miss,
mm_,1,emo_fac,70,ekl,valid,ekl,ekl99w14.avi,9,9w,2.612,2.500,1,,miss,
mm_,1,emo_fac,50,fre,valid,fre,fre99w26.avi,9,9w,5.117,2.500,1,,miss,
subjid,session,block,trialno,texpr,validity,pexpr,stimf,sex,id,onset,dur,corr_resp,subj_resp,accuracy,rt
mm_,1,emo_fac,36,fre,invalid,ekl,ekl99m21.avi,9,9m,0.069,3.000,1,,miss,
mm_,1,emo_fac,76,ekl,valid,ekl,ekl99w04.avi,9,9w,3.065,3.000,1,,miss,
mm_,1,emo_fac,122,ekl,invalid,fre,fre99m49.avi,9,9m,6.054,3.000,1,,miss,
subjid,session,block,trialno,texpr,validity,pexpr,stimf,sex,id,onset,dur,corr_resp,subj_resp,accuracy,rt
mm_,1,emo_fac,73,fre,invalid,ekl,ekl99m38.avi,9,9m,0.066,4.000,1,,miss,
mm_,1,emo_fac,114,ekl,valid,ekl,ekl99m03.avi,9,9m,4.053,4.000,1,,miss,
subjid,session,block,trialno,texpr,validity,pexpr,stimf,sex,id,onset,dur,corr_resp,subj_resp,accuracy,rt
mm_,1,emo_fac,100,ekl,valid,ekl,ekl99m21.avi,9,9m,0.054,2.900,1,,miss,
subjid,session,block,trialno,texpr,validity,pexpr,stimf,sex,id,onset,dur,corr_resp,subj_resp,accuracy,rt
mm_,1,emo_fac,40,ekl,valid,ekl,ekl99w12.avi,9,9w,0.062,3.100,1,,miss,
subjid,session,block,trialno,texpr,validity,pexpr,stimf,sex,id,onset,dur,corr_resp,subj_resp,accuracy,rt
mm_,1,emo_fac,135,fre,valid,fre,fre99m15.avi,9,9m,0.066,2.900,1,,miss,
mm_,1,emo_fac,119,ekl,valid,ekl,ekl99m38.avi,9,9m,2.952,2.900,1,,miss,
subjid,session,block,trialno,texpr,validity,pexpr,stimf,sex,id,onset,dur,corr_resp,subj_resp,accuracy,rt
mm_,1,emo_fac,114,ekl,valid,ekl,ekl99w19.avi,9,9w,0.073,2.900,1,,miss,
mm_,1,emo_fac,55,ekl,valid,ekl,ekl99w31.avi,9,9w,2.996,2.900,1,,miss,
mm_,1,emo_fac,155,fre,valid,fre,fre99m21.avi,9,9m,5.869,2.900,1,,miss,
mm_,1,emo_fac,115,fre,valid,fre,fre99w56.avi,9,9w,8.764,2.900,1,,miss,
subjid,session,block,trialno,texpr,validity,pexpr,stimf,sex,id,onset,dur,corr_resp,subj_resp,accuracy,rt
mm_,1,emo_fac,135,fre,valid,fre,fre99w19.avi,9,9w,0.061,2.900,1,,miss,
subjid,session,block,trialno,texpr,validity,pexpr,stimf,sex,id,onset,dur,corr_resp,subj_resp,accuracy,rt
mm_,1,emo_fac,71,ekl,valid,ekl,ekl99w18.avi,9,9w,0.055,2.900,1,,miss,
mm_,1,emo_fac,130,fre,valid,fre,fre99m21.avi,9,9m,2.954,2.900,1,,miss,
mm_,1,emo_fac,67,fre,invalid,ekl,ekl99m46.avi,9,9m,5.868,2.900,1,,miss,
mm_,1,emo_fac,8,ekl,valid,ekl,ekl99m07.avi,9,9m,8.763,2.900,1,,miss,
mm_,1,emo_fac,113,fre,invalid,ekl,ekl99m23.avi,9,9m,11.653,2.900,1,,miss,
mm_,1,emo_fac,39,fre,valid,fre,fre99w22.avi,9,9w,14.571,2.900,1,,miss,
mm_,1,emo_fac,116,ekl,valid,ekl,ekl99w57.avi,9,9w,17.450,2.900,1,,miss,
mm_,1,emo_fac,105,ekl,invalid,fre,fre99m07.avi,9,9m,20.361,2.900,1,,miss,
mm_,1,emo_fac,143,ekl,invalid,fre,fre99m38.avi,9,9m,23.254,2.900,1,,miss,
mm_,1,emo_fac,62,ekl,invalid,fre,fre99m71.avi,9,9m,26.153,2.900,1,,miss,
mm_,1,emo_fac,141,fre,valid,fre,fre99w14.avi,9,9w,29.066,2.900,1,,miss,
mm_,1,emo_fac,51,ekl,valid,ekl,ekl99w61.avi,9,9w,31.971,2.900,1,,miss,
mm_,1,emo_fac,146,ekl,valid,ekl,ekl99w37.avi,9,9w,34.853,2.900,1,,miss,
mm_,1,emo_fac,49,fre,valid,fre,fre99m09.avi,9,9m,37.763,2.900,1,,miss,
mm_,1,emo_fac,97,ekl,valid,ekl,ekl99w02.avi,9,9w,40.664,2.900,1,,miss,
mm_,1,emo_fac,106,ekl,valid,ekl,ekl99w16.avi,9,9w,43.565,2.900,1,,miss,
mm_,1,emo_fac,3,ekl,valid,ekl,ekl99m36.avi,9,9m,46.453,2.900,1,,miss,
mm_,1,emo_fac,5,fre,valid,fre,fre99m10.avi,9,9m,49.353,2.900,1,,miss,
mm_,1,emo_fac,137,fre,valid,fre,fre99m09.avi,9,9m,52.254,2.900,1,,miss,
mm_,1,emo_fac,132,ekl,invalid,fre,fre99m23.avi,9,9m,55.157,2.900,1,,miss,
mm_,1,emo_fac,160,ekl,valid,ekl,ekl99w31.avi,9,9w,58.053,2.900,1,,miss,
mm_,1,emo_fac,109,fre,valid,fre,fre99m23.avi,9,9m,60.952,2.900,1,,miss,
mm_,1,emo_fac,134,fre,valid,fre,fre99w26.avi,9,9w,63.853,2.900,1,,miss,
mm_,1,emo_fac,26,fre,valid,fre,fre99w18.avi,9,9w,66.852,2.900,1,,miss,
mm_,1,emo_fac,118,ekl,valid,ekl,ekl99m03.avi,9,9m,69.667,2.900,1,,miss,
mm_,1,emo_fac,23,fre,invalid,ekl,ekl99m23.avi,9,9m,72.553,2.900,1,,miss,
mm_,1,emo_fac,14,ekl,valid,ekl,ekl99m47.avi,9,9m,75.457,2.900,1,,miss,
mm_,1,emo_fac,157,ekl,invalid,fre,fre99m23.avi,9,9m,78.354,2.900,1,,miss,
mm_,1,emo_fac,28,ekl,valid,ekl,ekl99w27.avi,9,9w,81.322,2.900,1,,miss,
mm_,1,emo_fac,78,ekl,valid,ekl,ekl99m21.avi,9,9m,84.153,2.900,1,,miss,
mm_,1,emo_fac,75,fre,valid,fre,fre99m36.avi,9,9m,87.064,2.900,1,,miss,
mm_,1,emo_fac,117,ekl,valid,ekl,ekl99m49.avi,9,9m,90.035,2.900,1,,miss,
mm_,1,emo_fac,156,ekl,invalid,fre,fre99m20.avi,9,9m,92.854,2.900,1,,miss,
mm_,1,emo_fac,84,fre,valid,fre,fre99w16.avi,9,9w,95.758,2.900,1,,miss,
mm_,1,emo_fac,33,fre,valid,fre,fre99w37.avi,9,9w,98.653,2.900,1,,miss,
mm_,1,emo_fac,83,ekl,valid,ekl,ekl99m38.avi,9,9m,101.552,2.900,1,,miss,
mm_,1,emo_fac,114,fre,valid,fre,fre99w56.avi,9,9w,104.454,2.900,1,,miss,
mm_,1,emo_fac,11,ekl,valid,ekl,ekl99w37.avi,9,9w,107.353,2.900,1,,miss,
mm_,1,emo_fac,65,fre,invalid,ekl,ekl99m20.avi,9,9m,110.259,2.900,1,,miss,
mm_,1,emo_fac,20,fre,valid,fre,fre99m33.avi,9,9m,113.168,2.900,1,,miss,
mm_,1,emo_fac,122,fre,valid,fre,fre99w19.avi,9,9w,116.053,2.900,1,,miss,
mm_,1,emo_fac,127,ekl,valid,ekl,ekl99m15.avi,9,9m,118.954,2.900,1,,miss,
mm_,1,emo_fac,139,ekl,valid,ekl,ekl99w58.avi,9,9w,121.869,2.900,1,,miss,
mm_,1,emo_fac,37,fre,valid,fre,fre99m07.avi,9,9m,124.754,2.900,1,,miss,
mm_,1,emo_fac,99,ekl,valid,ekl,ekl99m25.avi,9,9m,127.674,2.900,1,,miss,
mm_,1,emo_fac,46,ekl,valid,ekl,ekl99w56.avi,9,9w,130.610,2.900,1,,miss,
mm_,1,emo_fac,104,fre,invalid,ekl,ekl99m71.avi,9,9m,133.466,2.900,1,,miss,
mm_,1,emo_fac,81,fre,valid,fre,fre99w02.avi,9,9w,136.370,2.900,1,,miss,
mm_,1,emo_fac,108,ekl,valid,ekl,ekl99w02.avi,9,9w,139.252,2.900,1,,miss,
mm_,1,emo_fac,142,fre,valid,fre,fre99w57.avi,9,9w,142.228,2.900,1,,miss,
mm_,1,emo_fac,153,ekl,valid,ekl,ekl99w12.avi,9,9w,145.053,2.900,1,,miss,
mm_,1,emo_fac,82,ekl,valid,ekl,ekl99m46.avi,9,9m,147.952,2.900,1,,miss,
mm_,1,emo_fac,12,fre,valid,fre,fre99w26.avi,9,9w,150.854,2.900,1,,miss,
mm_,1,emo_fac,133,ekl,valid,ekl,ekl99m47.avi,9,9m,153.752,2.900,1,,miss,
mm_,1,emo_fac,119,ekl,valid,ekl,ekl99w22.avi,9,9w,156.654,2.900,1,,miss,
mm_,1,emo_fac,94,ekl,invalid,fre,fre99m33.avi,9,9m,159.553,2.900,1,,miss,
mm_,1,emo_fac,93,fre,valid,fre,fre99w22.avi,9,9w,162.454,2.900,1,,miss,
mm_,1,emo_fac,61,fre,valid,fre,fre99m15.avi,9,9m,165.352,2.900,1,,miss,
mm_,1,emo_fac,135,ekl,invalid,fre,fre99m25.avi,9,9m,168.254,2.900,1,,miss,
mm_,1,emo_fac,110,fre,invalid,ekl,ekl99m05.avi,9,9m,171.153,2.900,1,,miss,
mm_,1,emo_fac,32,fre,valid,fre,fre99m25.avi,9,9m,174.051,2.900,1,,miss,
mm_,1,emo_fac,125,fre,valid,fre,fre99m24.avi,9,9m,176.956,2.900,1,,miss,
mm_,1,emo_fac,74,fre,valid,fre,fre99m46.avi,9,9m,179.854,2.900,1,,miss,
mm_,1,emo_fac,24,fre,invalid,ekl,ekl99m07.avi,9,9m,182.753,2.900,1,,miss,
mm_,1,emo_fac,21,fre,valid,fre,fre99m05.avi,9,9m,185.670,2.900,1,,miss,
mm_,1,emo_fac,19,ekl,valid,ekl,ekl99m03.avi,9,9m,188.554,2.900,1,,miss,
mm_,1,emo_fac,140,ekl,valid,ekl,ekl99m10.avi,9,9m,191.452,2.900,1,,miss,
mm_,1,emo_fac,30,ekl,valid,ekl,ekl99m10.avi,9,9m,194.353,2.900,1,,miss,
mm_,1,emo_fac,148,ekl,valid,ekl,ekl99m21.avi,9,9m,197.253,2.900,1,,miss,
mm_,1,emo_fac,27,fre,valid,fre,fre99m46.avi,9,9m,200.153,2.900,1,,miss,
mm_,1,emo_fac,53,ekl,valid,ekl,ekl99w26.avi,9,9w,203.053,2.900,1,,miss,
mm_,1,emo_fac,95,ekl,valid,ekl,ekl99m30.avi,9,9m,205.953,2.900,1,,miss,
mm_,1,emo_fac,124,fre,invalid,ekl,ekl99m28.avi,9,9m,208.862,2.900,1,,miss,
mm_,1,emo_fac,6,ekl,valid,ekl,ekl99w31.avi,9,9w,211.753,2.900,1,,miss,
mm_,1,emo_fac,88,fre,valid,fre,fre99w22.avi,9,9w,214.653,2.900,1,,miss,
mm_,1,emo_fac,70,fre,invalid,ekl,ekl99m10.avi,9,9m,217.553,2.900,1,,miss,
mm_,1,emo_fac,52,fre,valid,fre,fre99m49.avi,9,9m,220.453,2.900,1,,miss,
mm_,1,emo_fac,41,fre,valid,fre,fre99w58.avi,9,9w,223.367,2.900,1,,miss,
mm_,1,emo_fac,45,fre,valid,fre,fre99m30.avi,9,9m,226.268,2.900,1,,miss,
mm_,1,emo_fac,34,fre,valid,fre,fre99m71.avi,9,9m,229.153,2.900,1,,miss,
mm_,1,emo_fac,47,ekl,valid,ekl,ekl99w04.avi,9,9w,232.054,2.900,1,,miss,
mm_,1,emo_fac,111,fre,valid,fre,fre99w04.avi,9,9w,234.969,2.900,1,,miss,
mm_,1,emo_fac,60,ekl,invalid,fre,fre99m38.avi,9,9m,237.853,2.900,1,,miss,
mm_,1,emo_fac,40,fre,valid,fre,fre99m38.avi,9,9m,240.754,2.900,1,,miss,
mm_,1,emo_fac,103,fre,valid,fre,fre99w57.avi,9,9w,243.655,2.900,1,,miss,
mm_,1,emo_fac,151,ekl,invalid,fre,fre99m09.avi,9,9m,246.552,2.900,1,,miss,
mm_,1,emo_fac,9,ekl,valid,ekl,ekl99w02.avi,9,9w,249.452,2.900,1,,miss,
mm_,1,emo_fac,131,ekl,invalid,fre,fre99m33.avi,9,9m,252.353,2.900,1,,miss,
mm_,1,emo_fac,102,ekl,valid,ekl,ekl99m71.avi,9,9m,255.254,2.900,1,,miss,
mm_,1,emo_fac,144,ekl,valid,ekl,ekl99w08.avi,9,9w,258.269,2.900,1,,miss,
mm_,1,emo_fac,90,fre,valid,fre,fre99m03.avi,9,9m,261.083,2.900,1,,miss,
mm_,1,emo_fac,64,ekl,valid,ekl,ekl99m21.avi,9,9m,263.953,2.900,1,,miss,
mm_,1,emo_fac,77,ekl,valid,ekl,ekl99m49.avi,9,9m,266.853,2.900,1,,miss,
mm_,1,emo_fac,87,fre,valid,fre,fre99m05.avi,9,9m,269.753,2.900,1,,miss,
mm_,1,emo_fac,159,fre,valid,fre,fre99m10.avi,9,9m,272.653,2.900,1,,miss,
mm_,1,emo_fac,59,fre,valid,fre,fre99w61.avi,9,9w,275.569,2.900,1,,miss,
mm_,1,emo_fac,86,ekl,valid,ekl,ekl99m28.avi,9,9m,278.454,2.900,1,,miss,
mm_,1,emo_fac,101,fre,valid,fre,fre99w16.avi,9,9w,281.353,2.900,1,,miss,
mm_,1,emo_fac,63,fre,valid,fre,fre99w31.avi,9,9w,284.261,2.900,1,,miss,
mm_,1,emo_fac,155,fre,valid,fre,fre99m25.avi,9,9m,287.153,2.900,1,,miss,
mm_,1,emo_fac,43,fre,valid,fre,fre99w12.avi,9,9w,290.060,2.900,1,,miss,
mm_,1,emo_fac,69,ekl,valid,ekl,ekl99m49.avi,9,9m,292.952,2.900,1,,miss,
mm_,1,emo_fac,158,fre,valid,fre,fre99m28.avi,9,9m,295.852,2.900,1,,miss,
mm_,1,emo_fac,129,fre,invalid,ekl,ekl99m47.avi,9,9m,298.757,2.900,1,,miss,
mm_,1,emo_fac,31,fre,invalid,ekl,ekl99m05.avi,9,9m,301.653,2.900,1,,miss,
mm_,1,emo_fac,92,fre,valid,fre,fre99w01.avi,9,9w,304.572,2.900,1,,miss,
mm_,1,emo_fac,35,fre,invalid,ekl,ekl99m21.avi,9,9m,307.451,2.900,1,,miss,
mm_,1,emo_fac,18,ekl,valid,ekl,ekl99w16.avi,9,9w,310.352,2.900,1,,miss,
mm_,1,emo_fac,56,ekl,valid,ekl,ekl99w19.avi,9,9w,313.252,2.900,1,,miss,
mm_,1,emo_fac,4,fre,invalid,ekl,ekl99m21.avi,9,9m,316.153,2.900,1,,miss,
mm_,1,emo_fac,7,ekl,valid,ekl,ekl99w14.avi,9,9w,319.052,2.900,1,,miss,
mm_,1,emo_fac,85,fre,valid,fre,fre99m03.avi,9,9m,321.952,2.900,1,,miss,
mm_,1,emo_fac,2,fre,valid,fre,fre99m38.avi,9,9m,324.853,2.900,1,,miss,
mm_,1,emo_fac,38,fre,invalid,ekl,ekl99m24.avi,9,9m,327.752,2.900,1,,miss,
mm_,1,emo_fac,115,ekl,valid,ekl,ekl99m23.avi,9,9m,330.652,2.900,1,,miss,
mm_,1,emo_fac,128,ekl,valid,ekl,ekl99w19.avi,9,9w,333.554,2.900,1,,miss,
mm_,1,emo_fac,96,ekl,valid,ekl,ekl99m05.avi,9,9m,336.453,2.900,1,,miss,
mm_,1,emo_fac,121,ekl,invalid,fre,fre99m49.avi,9,9m,339.355,2.900,1,,miss,
mm_,1,emo_fac,149,ekl,valid,ekl,ekl99m24.avi,9,9m,342.253,2.900,1,,miss,
mm_,1,emo_fac,91,ekl,valid,ekl,ekl99w22.avi,9,9w,345.154,2.900,1,,miss,
mm_,1,emo_fac,112,ekl,invalid,fre,fre99m07.avi,9,9m,348.055,2.900,1,,miss,
mm_,1,emo_fac,89,ekl,invalid,fre,fre99m71.avi,9,9m,350.953,2.900,1,,miss,
mm_,1,emo_fac,13,fre,valid,fre,fre99w57.avi,9,9w,353.853,2.900,1,,miss,
mm_,1,emo_fac,48,ekl,valid,ekl,ekl99m09.avi,9,9m,356.762,2.900,1,,miss,
mm_,1,emo_fac,55,ekl,valid,ekl,ekl99w16.avi,9,9w,359.654,2.900,1,,miss,
mm_,1,emo_fac,36,ekl,valid,ekl,ekl99m23.avi,9,9m,362.553,2.900,1,,miss,
mm_,1,emo_fac,123,fre,valid,fre,fre99w04.avi,9,9w,365.452,2.900,1,,miss,
mm_,1,emo_fac,147,fre,valid,fre,fre99w27.avi,9,9w,368.352,2.900,1,,miss,
mm_,1,emo_fac,54,ekl,invalid,fre,fre99m28.avi,9,9m,371.253,2.900,1,,miss,
mm_,1,emo_fac,79,fre,invalid,ekl,ekl99m05.avi,9,9m,374.154,2.900,1,,miss,
mm_,1,emo_fac,58,fre,valid,fre,fre99w31.avi,9,9w,377.053,2.900,1,,miss,
mm_,1,emo_fac,76,ekl,valid,ekl,ekl99m33.avi,9,9m,379.950,2.900,1,,miss,
mm_,1,emo_fac,98,fre,invalid,ekl,ekl99m21.avi,9,9m,382.854,2.900,1,,miss,
mm_,1,emo_fac,73,ekl,invalid,fre,fre99m46.avi,9,9m,385.753,2.900,1,,miss,
mm_,1,emo_fac,126,ekl,valid,ekl,ekl99w01.avi,9,9w,388.671,2.900,1,,miss,
mm_,1,emo_fac,100,fre,valid,fre,fre99w16.avi,9,9w,391.552,2.900,1,,miss,
mm_,1,emo_fac,17,fre,invalid,ekl,ekl99m25.avi,9,9m,394.454,2.900,1,,miss,
mm_,1,emo_fac,145,fre,valid,fre,fre99w01.avi,9,9w,397.352,2.900,1,,miss,
mm_,1,emo_fac,50,fre,valid,fre,fre99m15.avi,9,9m,400.253,2.900,1,,miss,
mm_,1,emo_fac,120,ekl,valid,ekl,ekl99w18.avi,9,9w,403.153,2.900,1,,miss,
mm_,1,emo_fac,44,ekl,valid,ekl,ekl99w12.avi,9,9w,406.052,2.900,1,,miss,
mm_,1,emo_fac,152,fre,invalid,ekl,ekl99m47.avi,9,9m,408.953,2.900,1,,miss,
mm_,1,emo_fac,138,fre,invalid,ekl,ekl99m07.avi,9,9m,411.853,2.900,1,,miss,
mm_,1,emo_fac,15,ekl,invalid,fre,fre99m20.avi,9,9m,414.753,2.900,1,,miss,
mm_,1,emo_fac,16,fre,valid,fre,fre99m28.avi,9,9m,417.653,2.900,1,,miss,
mm_,1,emo_fac,42,ekl,valid,ekl,ekl99m20.avi,9,9m,420.560,2.900,1,,miss,
mm_,1,emo_fac,136,ekl,invalid,fre,fre99m10.avi,9,9m,423.451,2.900,1,,miss,
mm_,1,emo_fac,80,fre,valid,fre,fre99w32.avi,9,9w,426.362,2.900,1,,miss,
mm_,1,emo_fac,72,ekl,valid,ekl,ekl99m33.avi,9,9m,429.253,2.900,1,,miss,
mm_,1,emo_fac,107,fre,valid,fre,fre99m05.avi,9,9m,432.154,2.900,1,,miss,
mm_,1,emo_fac,154,fre,valid,fre,fre99m20.avi,9,9m,435.053,2.900,1,,miss,
mm_,1,emo_fac,22,fre,valid,fre,fre99m47.avi,9,9m,437.967,2.900,1,,miss,
mm_,1,emo_fac,150,ekl,valid,ekl,ekl99m30.avi,9,9m,440.852,2.900,1,,miss,
mm_,1,emo_fac,68,ekl,valid,ekl,ekl99w32.avi,9,9w,443.762,2.900,1,,miss,
mm_,1,emo_fac,66,fre,valid,fre,fre99w08.avi,9,9w,446.667,2.900,1,,miss,
mm_,1,emo_fac,1,ekl,invalid,fre,fre99m05.avi,9,9m,449.553,2.900,1,,miss,
mm_,1,emo_fac,57,fre,invalid,ekl,ekl99m38.avi,9,9m,452.453,2.900,1,,miss,
mm_,1,emo_fac,29,ekl,invalid,fre,fre99m23.avi,9,9m,455.353,2.900,1,,miss,
mm_,1,emo_fac,25,fre,valid,fre,fre99w27.avi,9,9w,458.254,2.900,1,,miss,
mm_,1,emo_fac,10,ekl,valid,ekl,ekl99w27.avi,9,9w,461.154,2.900,1,,miss,
subjid,session,block,trialno,texpr,validity,pexpr,stimf,sex,id,onset,dur,corr_resp,subj_resp,accuracy,rt
mm_,1,emo_fac,85,fre,valid,fre,fre99w19.avi,9,9w,0.050,2.900,1,,miss,
subjid,session,block,trialno,texpr,validity,pexpr,stimf,sex,id,onset,dur,corr_resp,subj_resp,accuracy,rt
mm_,1,emo_fac,63,ekl,valid,ekl,ekl99m20.avi,9,9m,0.051,2.900,1,,miss,
mm_,1,emo_fac,15,fre,valid,fre,fre99w37.avi,9,9w,2.953,2.900,1,,miss,
mm_,1,emo_fac,50,fre,valid,fre,fre99m36.avi,9,9m,5.853,2.900,1,,miss,
subjid,session,block,trialno,texpr,validity,pexpr,stimf,sex,id,onset,dur,corr_resp,subj_resp,accuracy,rt
mm_,1,emo_fac,23,ekl,invalid,fre,fre99m71.avi,9,9m,0.055,2.900,1,,miss,
mm_,1,emo_fac,62,ekl,valid,ekl,ekl99w58.avi,9,9w,2.954,2.900,1,,miss,
mm_,1,emo_fac,149,ekl,valid,ekl,ekl99m09.avi,9,9m,5.853,2.900,1,,miss,
subjid,session,block,trialno,texpr,validity,pexpr,stimf,sex,id,onset,dur,corr_resp,subj_resp,accuracy,rt
mm_,1,emo_fac,23,fre,invalid,ekl,ekl99m05.avi,9,9m,0.053,2.900,1,,miss,
mm_,1,emo_fac,93,fre,invalid,ekl,ekl99m09.avi,9,9m,2.953,2.900,1,,miss,
mm_,1,emo_fac,32,ekl,valid,ekl,ekl99w19.avi,9,9w,5.854,2.900,1,,miss,
mm_,1,emo_fac,152,ekl,valid,ekl,ekl99m47.avi,9,9m,8.753,2.900,1,,miss,
subjid,session,block,trialno,texpr,validity,pexpr,stimf,sex,id,onset,dur,corr_resp,subj_resp,accuracy,rt
mm_,1,emo_fac,55,ekl,valid,ekl,ekl99w27.avi,9,9w,0.053,2.900,1,,miss,
mm_,1,emo_fac,107,ekl,valid,ekl,ekl99w31.avi,9,9w,2.953,2.900,1,,miss,
mm_,1,emo_fac,124,ekl,valid,ekl,ekl99w01.avi,9,9w,5.853,2.900,1,,miss,
mm_,1,emo_fac,106,ekl,valid,ekl,ekl99m24.avi,9,9m,8.752,2.900,1,,miss,
mm_,1,emo_fac,118,fre,valid,fre,fre99m23.avi,9,9m,11.653,2.900,1,,miss,
mm_,1,emo_fac,28,ekl,valid,ekl,ekl99m15.avi,9,9m,14.553,2.900,1,,miss,
mm_,1,emo_fac,17,ekl,valid,ekl,ekl99m05.avi,9,9m,17.453,2.900,1,,miss,
subjid,session,block,trialno,texpr,validity,pexpr,stimf,sex,id,onset,corr_resp,subj_resp,accuracy,rt,dur
mm_,1,emo_fac,119,fre,valid,fre,fre99m15.avi,9,9m,0.052,1,,miss,,2.900
mm_,1,emo_fac,44,fre,invalid,ekl,ekl99m30.avi,9,9m,2.954,1,,miss,,2.900
mm_,1,emo_fac,35,fre,valid,fre,fre99m10.avi,9,9m,5.852,1,,miss,,2.900
subjid,session,block,trialno,texpr,validity,pexpr,stimf,sex,id,onset,dur,corr_resp,subj_resp,accuracy,rt
mm_,1,emo_fac,63,fre,invalid,ekl,ekl99m07.avi,9,9m,0.053,2.900,1,,miss,
mm_,1,emo_fac,158,ekl,invalid,fre,fre99m36.avi,9,9m,2.954,2.900,1,,miss,
mm_,1,emo_fac,91,ekl,invalid,fre,fre99m05.avi,9,9m,5.852,2.900,1,,miss,
subjid,session,block,trialno,texpr,validity,pexpr,stimf,sex,id,onset,dur,corr_resp,subj_resp,accuracy,rt
mm_,1,emo_fac,129,ekl,valid,ekl,ekl99m15.avi,9,9m,0.050,1.700,,,,
mm_,1,emo_fac,132,fre,valid,fre,fre99m25.avi,9,9m,1.755,1.700,,,,
mm_,1,emo_fac,70,ekl,valid,ekl,ekl99m05.avi,9,9m,3.454,1.700,,,,
subjid,session,block,trialno,texpr,validity,pexpr,stimf,sex,id,onset,dur,corr_resp,subj_resp,accuracy,rt
mm_,1,emo_fac,66,fre,valid,fre,fre99w02.avi,9,9w,0.050,1.700,,,,
mm_,1,emo_fac,147,ekl,valid,ekl,ekl99m10.avi,9,9m,1.752,1.700,,,,
mm_,1,emo_fac,99,ekl,valid,ekl,ekl99m33.avi,9,9m,3.454,1.700,,,,
mm_,1,emo_fac,127,ekl,valid,ekl,ekl99m05.avi,9,9m,5.154,1.700,,,,
subjid,session,block,trialno,texpr,validity,pexpr,stimf,sex,id,onset,dur,corr_resp,subj_resp,accuracy,rt
mm_,1,emo_fac,61,ekl,invalid,fre,fre99m33.avi,9,9m,0.055,1.700,,,,
mm_,1,emo_fac,59,fre,valid,fre,fre99w27.avi,9,9w,1.754,1.700,,,,
subjid,session,block,trialno,texpr,validity,pexpr,stimf,sex,id,onset,dur,corr_resp,subj_resp,accuracy,rt
mm_,1,emo_fac,102,ekl,valid,ekl,ekl99m09.avi,9,9m,0.052,2.500,,,,
mm_,1,emo_fac,22,fre,valid,fre,fre99m24.avi,9,9m,3.263,2.500,,,,
mm_,1,emo_fac,109,ekl,valid,ekl,ekl99w27.avi,9,9w,6.465,2.500,,,,
mm_,1,emo_fac,140,fre,valid,fre,fre99w22.avi,9,9w,9.671,2.500,,,,
mm_,1,emo_fac,143,fre,valid,fre,fre99m33.avi,9,9m,12.867,2.500,,,,
mm_,1,emo_fac,25,fre,valid,fre,fre99m47.avi,9,9m,16.070,2.500,,,,
mm_,1,emo_fac,53,ekl,valid,ekl,ekl99m38.avi,9,9m,19.273,2.500,,,,
mm_,1,emo_fac,87,fre,valid,fre,fre99w01.avi,9,9w,22.475,2.500,,,,
mm_,1,emo_fac,3,fre,valid,fre,fre99m46.avi,9,9m,25.676,2.500,,,,
mm_,1,emo_fac,63,fre,valid,fre,fre99w56.avi,9,9w,28.878,2.500,,,,
mm_,1,emo_fac,91,fre,valid,fre,fre99m25.avi,9,9m,32.082,2.500,,,,
mm_,1,emo_fac,10,ekl,invalid,fre,fre99m23.avi,9,9m,35.284,2.500,,,,
mm_,1,emo_fac,72,ekl,valid,ekl,ekl99m20.avi,9,9m,38.488,2.500,,,,
mm_,1,emo_fac,154,fre,valid,fre,fre99w32.avi,9,9w,41.690,2.500,,,,
mm_,1,emo_fac,119,ekl,valid,ekl,ekl99m25.avi,9,9m,44.890,2.500,,,,
mm_,1,emo_fac,6,fre,invalid,ekl,ekl99m15.avi,9,9m,48.093,2.500,,,,
mm_,1,emo_fac,32,fre,valid,fre,fre99m21.avi,9,9m,51.295,2.500,,,,
mm_,1,emo_fac,97,fre,valid,fre,fre99w57.avi,9,9w,54.497,2.500,,,,
mm_,1,emo_fac,64,ekl,invalid,fre,fre99m20.avi,9,9m,57.704,2.500,,,,
mm_,1,emo_fac,114,fre,valid,fre,fre99m38.avi,9,9m,60.902,2.500,,,,
mm_,1,emo_fac,17,ekl,valid,ekl,ekl99m36.avi,9,9m,64.105,2.500,,,,
mm_,1,emo_fac,16,fre,valid,fre,fre99m46.avi,9,9m,67.306,2.500,,,,
mm_,1,emo_fac,96,ekl,valid,ekl,ekl99w08.avi,9,9w,70.509,2.500,,,,
mm_,1,emo_fac,129,ekl,valid,ekl,ekl99w32.avi,9,9w,73.712,2.500,,,,
mm_,1,emo_fac,142,ekl,invalid,fre,fre99m23.avi,9,9m,76.912,2.500,,,,
mm_,1,emo_fac,89,ekl,valid,ekl,ekl99m30.avi,9,9m,80.117,2.500,,,,
mm_,1,emo_fac,68,ekl,valid,ekl,ekl99w32.avi,9,9w,83.317,2.500,,,,
mm_,1,emo_fac,124,fre,valid,fre,fre99w61.avi,9,9w,86.521,2.500,,,,
mm_,1,emo_fac,160,ekl,valid,ekl,ekl99w16.avi,9,9w,89.724,2.500,,,,
mm_,1,emo_fac,26,fre,valid,fre,fre99m30.avi,9,9m,92.926,2.500,,,,
mm_,1,emo_fac,20,fre,invalid,ekl,ekl99m49.avi,9,9m,96.128,2.500,,,,
mm_,1,emo_fac,79,fre,valid,fre,fre99m28.avi,9,9m,99.329,2.500,,,,
mm_,1,emo_fac,125,fre,invalid,ekl,ekl99m15.avi,9,9m,102.533,2.500,,,,
mm_,1,emo_fac,118,ekl,valid,ekl,ekl99w12.avi,9,9w,105.734,2.500,,,,
mm_,1,emo_fac,147,ekl,valid,ekl,ekl99m09.avi,9,9m,108.938,2.500,,,,
mm_,1,emo_fac,82,fre,valid,fre,fre99w31.avi,9,9w,112.142,2.500,,,,
mm_,1,emo_fac,77,fre,valid,fre,fre99m03.avi,9,9m,115.342,2.500,,,,
mm_,1,emo_fac,101,fre,valid,fre,fre99w12.avi,9,9w,118.544,2.500,,,,
mm_,1,emo_fac,151,fre,valid,fre,fre99w04.avi,9,9w,121.746,2.500,,,,
mm_,1,emo_fac,126,ekl,valid,ekl,ekl99w02.avi,9,9w,124.949,2.500,,,,
mm_,1,emo_fac,24,ekl,invalid,fre,fre99m05.avi,9,9m,128.150,2.500,,,,
mm_,1,emo_fac,112,ekl,invalid,fre,fre99m33.avi,9,9m,131.357,2.500,,,,
mm_,1,emo_fac,41,ekl,valid,ekl,ekl99w31.avi,9,9w,134.556,2.500,,,,
mm_,1,emo_fac,39,fre,invalid,ekl,ekl99m36.avi,9,9m,137.759,2.500,,,,
mm_,1,emo_fac,33,ekl,valid,ekl,ekl99w18.avi,9,9w,140.961,2.500,,,,
mm_,1,emo_fac,35,ekl,valid,ekl,ekl99w04.avi,9,9w,144.162,2.500,,,,
mm_,1,emo_fac,44,fre,valid,fre,fre99m15.avi,9,9m,147.365,2.500,,,,
mm_,1,emo_fac,139,fre,invalid,ekl,ekl99m07.avi,9,9m,150.566,2.500,,,,
mm_,1,emo_fac,43,ekl,invalid,fre,fre99m38.avi,9,9m,153.774,2.500,,,,
mm_,1,emo_fac,153,ekl,valid,ekl,ekl99w01.avi,9,9w,156.974,2.500,,,,
mm_,1,emo_fac,56,ekl,invalid,fre,fre99m23.avi,9,9m,160.173,2.500,,,,
mm_,1,emo_fac,49,ekl,invalid,fre,fre99m23.avi,9,9m,163.376,2.500,,,,
mm_,1,emo_fac,131,ekl,valid,ekl,ekl99w22.avi,9,9w,166.578,2.500,,,,
mm_,1,emo_fac,86,ekl,invalid,fre,fre99m10.avi,9,9m,169.779,2.500,,,,
mm_,1,emo_fac,133,fre,valid,fre,fre99w61.avi,9,9w,172.983,2.500,,,,
mm_,1,emo_fac,66,fre,valid,fre,fre99m23.avi,9,9m,176.185,2.500,,,,
mm_,1,emo_fac,69,ekl,valid,ekl,ekl99w16.avi,9,9w,179.387,2.500,,,,
mm_,1,emo_fac,146,fre,valid,fre,fre99w14.avi,9,9w,182.590,2.500,,,,
mm_,1,emo_fac,45,fre,invalid,ekl,ekl99m07.avi,9,9m,185.792,2.500,,,,
mm_,1,emo_fac,80,ekl,vasubjid,session,block,trialno,texpr,validity,pexpr,stimf,sex,id,onset,dur,corr_resp,subj_resp,accuracy,rt
mm_,1,emo_fac,3,ekl,valid,ekl,ekl99m03.avi,9,9m,0.054,4.500,,,,
mm_,1,emo_fac,44,fre,valid,fre,fre99m24.avi,9,9m,4.554,4.500,,,,
mm_,1,emo_fac,84,ekl,invalid,fre,fre99m46.avi,9,9m,9.054,4.500,,,,
mm_,1,emo_fac,112,fre,valid,fre,fre99w16.avi,9,9w,13.554,4.500,,,,
mm_,1,emo_fac,74,ekl,valid,ekl,ekl99w27.avi,9,9w,18.053,4.500,,,,
mm_,1,emo_fac,145,fre,valid,fre,fre99m07.avi,9,9m,22.554,4.500,,,,
mm_,1,emo_fac,154,ekl,invalid,fre,fre99m25.avi,9,9m,27.052,4.500,,,,
mm_,1,emo_fac,38,ekl,valid,ekl,ekl99w57.avi,9,9w,31.553,4.500,,,,
subjid,session,block,trialno,texpr,validity,pexpr,stimf,sex,id,onset,dur,corr_resp,subj_resp,accuracy,rt
mm_,1,emo_fac,109,fre,valid,fre,fre99w04.avi,9,9w,0.088,4.500,,,,
mm_,1,emo_fac,11,ekl,valid,ekl,ekl99w19.avi,9,9w,4.592,4.500,,,,
mm_,1,emo_fac,79,fre,valid,fre,fre99w01.avi,9,9w,9.076,4.500,,,,
mm_,1,emo_fac,52,fre,valid,fre,fre99m25.avi,9,9m,13.612,4.500,,,,
mm_,1,emo_fac,35,ekl,valid,ekl,ekl99m28.avi,9,9m,18.077,4.500,,,,
mm_,1,emo_fac,138,ekl,valid,ekl,ekl99w08.avi,9,9w,22.577,4.500,,,,
subjid,session,block,trialno,texpr,validity,pexpr,stimf,sex,id,onset,dur,corr_resp,subj_resp,accuracy,rt
mm_,1,emo_fac,58,ekl,valid,ekl,ekl99m38.avi,9,9m,0.076,4.500,,,,
mm_,1,emo_fac,3,fre,valid,fre,fre99w14.avi,9,9w,4.576,4.500,,,,
mm_,1,emo_fac,136,ekl,valid,ekl,ekl99w04.avi,9,9w,9.126,4.500,,,,
mm_,1,emo_fac,51,fre,valid,fre,fre99m05.avi,9,9m,13.579,4.500,,,,
mm_,1,emo_fac,28,fre,invalid,ekl,ekl99m10.avi,9,9m,18.076,4.500,,,,
mm_,1,emo_fac,114,fre,valid,fre,fre99m36.avi,9,9m,22.573,4.500,,,,
mm_,1,emo_fac,46,ekl,valid,ekl,ekl99w04.avi,9,9w,27.075,4.500,,,,
mm_,1,emo_fac,30,ekl,valid,ekl,ekl99w01.avi,9,9w,31.578,4.500,,,,
mm_,1,emo_fac,141,ekl,invalid,fre,fre99m21.avi,9,9m,36.076,4.500,,,,
mm_,1,emo_fac,12,fre,invalid,ekl,ekl99m03.avi,9,9m,40.573,4.500,,,,
mm_,1,emo_fac,148,ekl,valid,ekl,ekl99m28.avi,9,9m,45.074,4.500,,,,
subjid,session,block,trialno,texpr,validity,pexpr,stimf,sex,id,onset,dur,corr_resp,subj_resp,accuracy,rt
mm_,1,emo_fac,75,ekl,valid,ekl,ekl99w27.avi,9,9w,0.107,4.500,,,,
subjid,session,block,trialno,texpr,validity,pexpr,stimf,sex,id,onset,dur,corr_resp,subj_resp,accuracy,rt
mm_,1,emo_fac,140,ekl,valid,ekl,ekl99m38.avi,9,9m,0.065,4.500,,,,
mm_,1,emo_fac,50,ekl,invalid,fre,fre99m05.avi,9,9m,4.594,4.500,,,,
subjid,session,block,trialno,texpr,validity,pexpr,stimf,mov,sex,id,onset,dur,corr_resp,subj_resp,accuracy,rt
mm_,1,emo_fac,126,ekl,valid,ekl,ekl99m23.avi,"MovieStim3(autoLog=True, color=UNKNOWN, colorSpace=UNKNOWN, depth=0.0, filename='./vid/ekl99m23.avi', flipHoriz=False, flipVert=False, fps=UNKNOWN, interpolate=True, loop=False, name='PrimeVid', noAudio=True, opacity=1.0, ori=0.0, pos=array([ 0.,  0.]), size=array([ 511.,  768.]), units='pix', vframe_callback=UNKNOWN, volume=UNKNOWN, win=Window(...))",9,9m,0.003,4.500,,,,
mm_,1,emo_fac,113,fre,valid,fre,fre99m24.avi,"MovieStim3(autoLog=True, color=UNKNOWN, colorSpace=UNKNOWN, depth=0.0, filename='./vid/fre99m24.avi', flipHoriz=False, flipVert=False, fps=UNKNOWN, interpolate=True, loop=False, name='PrimeVid', noAudio=True, opacity=1.0, ori=0.0, pos=array([ 0.,  0.]), size=array([ 511.,  768.]), units='pix', vframe_callback=UNKNOWN, volume=UNKNOWN, win=Window(...))",9,9m,4.504,4.500,,,,
mm_,1,emo_fac,10,fre,invalid,ekl,ekl99m07.avi,"MovieStim3(autoLog=True, color=UNKNOWN, colorSpace=UNKNOWN, depth=0.0, filename='./vid/ekl99m07.avi', flipHoriz=False, flipVert=False, fps=UNKNOWN, interpolate=True, loop=False, name='PrimeVid', noAudio=True, opacity=1.0, ori=0.0, pos=array([ 0.,  0.]), size=array([ 511.,  768.]), units='pix', vframe_callback=UNKNOWN, volume=UNKNOWN, win=Window(...))",9,9m,9.004,4.500,,,,
subjid,session,block,trialno,texpr,validity,pexpr,stimf,mov,sex,id,onset,dur,corr_resp,subj_resp,accuracy,rt
mm_,1,emo_fac,27,fre,valid,fre,fre99m49.avi,"MovieStim3(autoLog=True, color=UNKNOWN, colorSpace=UNKNOWN, depth=0.0, filename='./vid/fre99m49.avi', flipHoriz=False, flipVert=False, fps=UNKNOWN, interpolate=True, loop=False, name='PrimeVid', noAudio=True, opacity=1.0, ori=0.0, pos=array([ 0.,  0.]), size=array([ 511.,  768.]), units='pix', vframe_callback=UNKNOWN, volume=UNKNOWN, win=Window(...))",9,9m,0.001,4.500,,,,
mm_,1,emo_fac,52,ekl,valid,ekl,ekl99m07.avi,"MovieStim3(autoLog=True, color=UNKNOWN, colorSpace=UNKNOWN, depth=0.0, filename='./vid/ekl99m07.avi', flipHoriz=False, flipVert=False, fps=UNKNOWN, interpolate=True, loop=False, name='PrimeVid', noAudio=True, opacity=1.0, ori=0.0, pos=array([ 0.,  0.]), size=array([ 511.,  768.]), units='pix', vframe_callback=UNKNOWN, volume=UNKNOWN, win=Window(...))",9,9m,4.502,4.500,,,,
subjid,session,block,trialno,texpr,validity,pexpr,stimf,mov,sex,id,onset,dur,corr_resp,subj_resp,accuracy,rt
mm_,1,emo_fac,69,fre,invalid,ekl,ekl99m49.avi,"MovieStim3(autoLog=True, color=UNKNOWN, colorSpace=UNKNOWN, depth=0.0, filename='./vid/ekl99m49.avi', flipHoriz=False, flipVert=False, fps=UNKNOWN, interpolate=True, loop=False, name='PrimeVid', noAudio=True, opacity=1.0, ori=0.0, pos=array([ 0.,  0.]), size=array([ 511.,  768.]), units='pix', vframe_callback=UNKNOWN, volume=UNKNOWN, win=Window(...))",9,9m,0.001,4.500,,,,
mm_,1,emo_fac,21,ekl,valid,ekl,ekl99m33.avi,"MovieStim3(autoLog=True, color=UNKNOWN, colorSpace=UNKNOWN, depth=0.0, filename='./vid/ekl99m33.avi', flipHoriz=False, flipVert=False, fps=UNKNOWN, interpolate=True, loop=False, name='PrimeVid', noAudio=True, opacity=1.0, ori=0.0, pos=array([ 0.,  0.]), size=array([ 511.,  768.]), units='pix', vframe_callback=UNKNOWN, volume=UNKNOWN, win=Window(...))",9,9m,4.502,4.500,,,,
mm_,1,emo_fac,79,ekl,valid,ekl,ekl99m24.avi,"MovieStim3(autoLog=True, color=UNKNOWN, colorSpace=UNKNOWN, depth=0.0, filename='./vid/ekl99m24.avi', flipHoriz=False, flipVert=False, fps=UNKNOWN, interpolate=True, loop=False, name='PrimeVid', noAudio=True, opacity=1.0, ori=0.0, pos=array([ 0.,  0.]), size=array([ 511.,  768.]), units='pix', vframe_callback=UNKNOWN, volume=UNKNOWN, win=Window(...))",9,9m,9.002,4.500,,,,
subjid,session,block,trialno,texpr,validity,pexpr,stimf,mov,sex,id,onset,dur,corr_resp,subj_resp,accuracy,rt
mm_,1,emo_fac,48,fre,invalid,ekl,ekl99m28.avi,"MovieStim3(autoLog=True, color=UNKNOWN, colorSpace=UNKNOWN, depth=0.0, filename='./vid/ekl99m28.avi', flipHoriz=False, flipVert=False, fps=UNKNOWN, interpolate=True, loop=False, name='PrimeVid', noAudio=True, opacity=1.0, ori=0.0, pos=array([ 0.,  0.]), size=array([ 511.,  768.]), units='pix', vframe_callback=UNKNOWN, volume=UNKNOWN, win=Window(...))",9,9m,0.073,4.500,,,,
mm_,1,emo_fac,134,fre,invalid,ekl,ekl99m21.avi,"MovieStim3(autoLog=True, color=UNKNOWN, colorSpace=UNKNOWN, depth=0.0, filename='./vid/ekl99m21.avi', flipHoriz=False, flipVert=False, fps=UNKNOWN, interpolate=True, loop=False, name='PrimeVid', noAudio=True, opacity=1.0, ori=0.0, pos=array([ 0.,  0.]), size=array([ 511.,  768.]), units='pix', vframe_callback=UNKNOWN, volume=UNKNOWN, win=Window(...))",9,9m,4.578,4.500,,,,
mm_,1,emo_fac,99,ekl,valid,ekl,ekl99m05.avi,"MovieStim3(autoLog=True, color=UNKNOWN, colorSpace=UNKNOWN, depth=0.0, filename='./vid/ekl99m05.avi', flipHoriz=False, flipVert=False, fps=UNKNOWN, interpolate=True, loop=False, name='PrimeVid', noAudio=True, opacity=1.0, ori=0.0, pos=array([ 0.,  0.]), size=array([ 511.,  768.]), units='pix', vframe_callback=UNKNOWN, volume=UNKNOWN, win=Window(...))",9,9m,9.073,4.500,,,,
mm_,1,emo_fac,75,ekl,valid,ekl,ekl99w04.avi,"MovieStim3(autoLog=True, color=UNKNOWN, colorSpace=UNKNOWN, depth=0.0, filename='./vid/ekl99w04.avi', flipHoriz=False, flipVert=False, fps=UNKNOWN, interpolate=True, loop=False, name='PrimeVid', noAudio=True, opacity=1.0, ori=0.0, pos=array([ 0.,  0.]), size=array([ 511.,  768.]), units='pix', vframe_callback=UNKNOWN, volume=UNKNOWN, win=Window(...))",9,9w,13.574,4.500,,,,
mm_,1,emo_fac,160,ekl,valid,ekl,ekl99w27.avi,"MovieStim3(autoLog=True, color=UNKNOWN, colorSpace=UNKNOWN, depth=0.0, filename='./vid/ekl99w27.avi', flipHoriz=False, flipVert=False, fps=UNKNOWN, interpolate=True, loop=False, name='PrimeVid', noAudio=True, opacity=1.0, ori=0.0, pos=array([ 0.,  0.]), size=array([ 511.,  768.]), units='pix', vframe_callback=UNKNOWN, volume=UNKNOWN, win=Window(...))",9,9w,18.077,4.500,,,,
mm_,1,emo_fac,85,fre,valid,fre,fre99w19.avi,"MovieStim3(autoLog=True, color=UNKNOWN, colorSpace=UNKNOWN, depth=0.0, filename='./vid/fre99w19.avi', flipHoriz=False, flipVert=False, fps=UNKNOWN, interpolate=True, loop=False, name='PrimeVid', noAudio=True, opacity=1.0, ori=0.0, pos=array([ 0.,  0.]), size=array([ 511.,  768.]), units='pix', vframe_callback=UNKNOWN, volume=UNKNOWN, win=Window(...))",9,9w,22.578,4.500,,,,
mm_,1,emo_fac,126,ekl,valid,ekl,ekl99m10.avi,"MovieStim3(autoLog=True, color=UNKNOWN, colorSpace=UNKNOWN, depth=0.0, filename='./vid/ekl99m10.avi', flipHoriz=False, flipVert=False, fps=UNKNOWN, interpolate=True, loop=False, name='PrimeVid', noAudio=True, opacity=1.0, ori=0.0, pos=array([ 0.,  0.]), size=array([ 511.,  768.]), units='pix', vframe_callback=UNKNOWN, volume=UNKNOWN, win=Window(...))",9,9m,27.075,4.500,,,,
mm_,1,emo_fac,100,ekl,valid,ekl,ekl99m33.avi,"MovieStim3(autoLog=True, color=UNKNOWN, colorSpace=UNKNOWN, depth=0.0, filename='./vid/ekl99m33.avi', flipHoriz=False, flipVert=False, fps=UNKNOWN, interpolate=True, loop=False, name='PrimeVid', noAudio=True, opacity=1.0, ori=0.0, pos=array([ 0.,  0.]), size=array([ 511.,  768.]), units='pix', vframe_callback=UNKNOWN, volume=UNKNOWN, win=Window(...))",9,9m,31.576,4.500,,,,
mm_,1,emo_fac,158,fre,valid,fre,fre99m03.avi,"MovieStim3(autoLog=True, color=UNKNOWN, colorSpace=UNKNOWN, depth=0.0, filename='./vid/fre99m03.avi', flipHoriz=False, flipVert=False, fps=UNKNOWN, interpolate=True, loop=False, name='PrimeVid', noAudio=True, opacity=1.0, ori=0.0, pos=array([ 0.,  0.]), size=array([ 511.,  768.]), units='pix', vframe_callback=UNKNOWN, volume=UNKNOWN, win=Window(...))",9,9m,36.074,4.500,,,,
mm_,1,emo_fac,132,fre,valid,fre,fre99m33.avi,"MovieStim3(autoLog=True, color=UNKNOWN, colorSpace=UNKNOWN, depth=0.0, filename='./vid/fre99m33.avi', flipHoriz=False, flipVert=False, fps=UNKNOWN, interpolate=True, loop=False, name='PrimeVid', noAudio=True, opacity=1.0, ori=0.0, pos=array([ 0.,  0.]), size=array([ 511.,  768.]), units='pix', vframe_callback=UNKNOWN, volume=UNKNOWN, win=Window(...))",9,9m,40.575,4.500,,,,
mm_,1,emo_fac,131,fre,valid,fre,fre99w16.avi,"MovieStim3(autoLog=True, color=UNKNOWN, colorSpace=UNKNOWN, depth=0.0, filename='./vid/fre99w16.avi', flipHoriz=False, flipVert=False, fps=UNKNOWN, interpolate=True, loop=False, name='PrimeVid', noAudio=True, opacity=1.0, ori=0.0, pos=array([ 0.,  0.]), size=array([ 511.,  768.]), units='pix', vframe_callback=UNKNOWN, volume=UNKNOWN, win=Window(...))",9,9w,45.077,4.500,,,,
mm_,1,emo_fac,114,fre,valid,fre,fre99w56.avi,"MovieStim3(autoLog=True, color=UNKNOWN, colorSpace=UNKNOWN, depth=0.0, filename='./vid/fre99w56.avi', flipHoriz=False, flipVert=False, fps=UNKNOWN, interpolate=True, loop=False, name='PrimeVid', noAudio=True, opacity=1.0, ori=0.0, pos=array([ 0.,  0.]), size=array([ 511.,  768.]), units='pix', vframe_callback=UNKNOWN, volume=UNKNOWN, win=Window(...))",9,9w,49.579,4.500,,,,
mm_,1,emo_fac,36,fre,valid,fre,fre99w32.avi,"MovieStim3(autoLog=True, color=UNKNOWN, colorSpace=UNKNOWN, depth=0.0, filename='./vid/fre99w32.avi', flipHoriz=False, flipVert=False, fps=UNKNOWN, interpolate=True, loop=False, name='PrimeVid', noAudio=True, opacity=1.0, ori=0.0, pos=array([ 0.,  0.]), size=array([ 511.,  768.]), units='pix', vframe_callback=UNKNOWN, volume=UNKNOWN, win=Window(...))",9,9w,54.077,4.500,,,,
mm_,1,emo_fac,159,ekl,valid,ekl,ekl99m20.avi,"MovieStim3(autoLog=True, color=UNKNOWN, colorSpace=UNKNOWN, depth=0.0, filename='./vid/ekl99m20.avi', flipHoriz=False, flipVert=False, fps=UNKNOWN, interpolate=True, loop=False, name='PrimeVid', noAudio=True, opacity=1.0, ori=0.0, pos=array([ 0.,  0.]), size=array([ 511.,  768.]), units='pix', vframe_callback=UNKNOWN, volume=UNKNOWN, win=Window(...))",9,9m,58.573,4.500,,,,
mm_,1,emo_fac,24,fre,valid,fre,fre99w14.avi,"MovieStim3(autoLog=True, color=UNKNOWN, colorSpace=UNKNOWN, depth=0.0, filename='./vid/fre99w14.avi', flipHoriz=False, flipVert=False, fps=UNKNOWN, interpolate=True, loop=False, name='PrimeVid', noAudio=True, opacity=1.0, ori=0.0, pos=array([ 0.,  0.]), size=array([ 511.,  768.]), units='pix', vframe_callback=UNKNOWN, volume=UNKNOWN, win=Window(...))",9,9w,63.074,4.500,,,,
mm_,1,emo_fac,13,ekl,valid,ekl,ekl99w31.avi,"MovieStim3(autoLog=True, color=UNKNOWN, colorSpace=UNKNOWN, depth=0.0, filename='./vid/ekl99w31.avi', flipHoriz=False, flipVert=False, fps=UNKNOWN, interpolate=True, loop=False, name='PrimeVid', noAudio=True, opacity=1.0, ori=0.0, pos=array([ 0.,  0.]), size=array([ 511.,  768.]), units='pix', vframe_callback=UNKNOWN, volume=UNKNOWN, win=Window(...))",9,9w,67.574,4.500,,,,
mm_,1,emo_fac,39,fre,valid,fre,fre99w19.avi,"MovieStim3(autoLog=True, color=UNKNOWN, colorSpace=UNKNOWN, depth=0.0, filename='./vid/fre99w19.avi', flipHoriz=False, flipVert=False, fps=UNKNOWN, interpolate=True, loop=False, name='PrimeVid', noAudio=True, opacity=1.0, ori=0.0, pos=array([ 0.,  0.]), size=array([ 511.,  768.]), units='pix', vframe_callback=UNKNOWN, volume=UNKNOWN, win=Window(...))",9,9w,72.080,4.500,,,,
mm_,1,emo_fac,6,ekl,valid,ekl,ekl99w08.avi,"MovieStim3(autoLog=True, color=UNKNOWN, colorSpace=UNKNOWN, depth=0.0, filename='./vid/ekl99w08.avi', flipHoriz=False, flipVert=False, fps=UNKNOWN, interpolate=True, loop=False, name='PrimeVid', noAudio=True, opacity=1.0, ori=0.0, pos=array([ 0.,  0.]), size=array([ 511.,  768.]), units='pix', vframe_callback=UNKNOWN, volume=UNKNOWN, win=Window(...))",9,9w,76.575,4.500,,,,
mm_,1,emo_fac,130,fre,valid,fre,fre99m30.avi,"MovieStim3(autoLog=True, color=UNKNOWN, colorSpace=UNKNOWN, depth=0.0, filename='./vid/fre99m30.avi', flipHoriz=False, flipVert=False, fps=UNKNOWN, interpolate=True, loop=False, name='PrimeVid', noAudio=True, opacity=1.0, ori=0.0, pos=array([ 0.,  0.]), size=array([ 511.,  768.]), units='pix', vframe_callback=UNKNOWN, volume=UNKNOWN, win=Window(...))",9,9m,81.079,4.500,,,,
mm_,1,emo_fac,14,fre,valid,fre,fre99w26.avi,"MovieStim3(autoLog=True, color=UNKNOWN, colorSpace=UNKNOWN, depth=0.0, filename='./vid/fre99w26.avi', flipHoriz=False, flipVert=False, fps=UNKNOWN, interpolate=True, loop=False, name='PrimeVid', noAudio=True, opacity=1.0, ori=0.0, pos=array([ 0.,  0.]), size=array([ 511.,  768.]), units='pix', vframe_callback=UNKNOWN, volume=UNKNOWN, win=Window(...))",9,9w,85.597,4.500,,,,
mm_,1,emo_fac,55,ekl,invalid,fre,fre99m47.avi,"MovieStim3(autoLog=True, color=UNKNOWN, colorSpace=UNKNOWN, depth=0.0, filename='./vid/fre99m47.avi', flipHoriz=False, flipVert=False, fps=UNKNOWN, interpolate=True, loop=False, name='PrimeVid', noAudio=True, opacity=1.0, ori=0.0, pos=array([ 0.,  0.]), size=array([ 511.,  768.]), units='pix', vframe_callback=UNKNOWN, volume=UNKNOWN, win=Window(...))",9,9m,90.074,4.500,,,,
mm_,1,emo_fac,98,fre,invalid,ekl,ekl99m36.avi,"MovieStim3(autoLog=True, color=UNKNOWN, colorSpace=UNKNOWN, depth=0.0, filename='./vid/ekl99m36.avi', flipHoriz=False, flipVert=False, fps=UNKNOWN, interpolate=True, loop=False, name='PrimeVid', noAudio=True, opacity=1.0, ori=0.0, pos=array([ 0.,  0.]), size=array([ 511.,  768.]), units='pix', vframe_callback=UNKNOWN, volume=UNKNOWN, win=Window(...))",9,9m,94.584,4.500,,,,
mm_,1,emo_fac,108,fre,invalid,ekl,ekl99m09.avi,"MovieStim3(autoLog=True, color=UNKNOWN, colorSpace=UNKNOWN, depth=0.0, filename='./vid/ekl99m09.avi', flipHoriz=False, flipVert=False, fps=UNKNOWN, interpolate=True, loop=False, name='PrimeVid', noAudio=True, opacity=1.0, ori=0.0, pos=array([ 0.,  0.]), size=array([ 511.,  768.]), units='pix', vframe_callback=UNKNOWN, volume=UNKNOWN, win=Window(...))",9,9m,99.076,4.500,,,,
mm_,1,emo_fac,124,ekl,valid,ekl,ekl99m38.avi,"MovieStim3(autoLog=True, color=UNKNOWN, colorSpace=UNKNOWN, depth=0.0, filename='./vid/ekl99m38.avi', flipHoriz=False, flipVert=False, fps=UNKNOWN, interpolate=True, loop=False, name='PrimeVid', noAudio=True, opacity=1.0, ori=0.0, pos=array([ 0.,  0.]), size=array([ 511.,  768.]), units='pix', vframe_callback=UNKNOWN, volume=UNKNOWN, win=Window(...))",9,9m,103.577,4.500,,,,
mm_,1,emo_fac,41,ekl,valid,ekl,ekl99m07.avi,"MovieStim3(autoLog=True, color=UNKNOWN, colorSpace=UNKNOWN, depth=0.0, filename='./vid/ekl99m07.avi', flipHoriz=False, flipVert=False, fps=UNKNOWN, interpolate=True, loop=False, name='PrimeVid', noAudio=True, opacity=1.0, ori=0.0, pos=array([ 0.,  0.]), size=array([ 511.,  768.]), units='pix', vframe_callback=UNKNOWN, volume=UNKNOWN, win=Window(...))",9,9m,108.075,4.500,,,,
mm_,1,emo_fac,142,fre,valid,fre,fre99w18.avi,"MovieStim3(autoLog=True, color=UNKNOWN, colorSpace=UNKNOWN, depth=0.0, filename='./vid/fre99w18.avi', flipHoriz=False, flipVert=False, fps=UNKNOWN, interpolate=True, loop=False, name='PrimeVid', noAudio=True, opacity=1.0, ori=0.0, pos=array([ 0.,  0.]), size=array([ 511.,  768.]), units='pix', vframe_callback=UNKNOWN, volume=UNKNOWN, win=Window(...))",9,9w,112.593,4.500,,,,
mm_,1,emo_fac,78,fre,valid,fre,fre99m23.avi,"MovieStim3(autoLog=True, color=UNKNOWN, colorSpace=UNKNOWN, depth=0.0, filename='./vid/fre99m23.avi', flipHoriz=False, flipVert=False, fps=UNKNOWN, interpolate=True, loop=False, name='PrimeVid', noAudio=True, opacity=1.0, ori=0.0, pos=array([ 0.,  0.]), size=array([ 511.,  768.]), units='pix', vframe_callback=UNKNOWN, volume=UNKNOWN, win=Window(...))",9,9m,117.074,4.500,,,,
mm_,1,emo_fac,113,ekl,valid,ekl,ekl99w57.avi,"MovieStim3(autoLog=True, color=UNKNOWN, colorSpace=UNKNOWN, depth=0.0, filename='./vid/ekl99w57.avi', flipHoriz=False, flipVert=False, fps=UNKNOWN, interpolate=True, loop=False, name='PrimeVid', noAudio=True, opacity=1.0, ori=0.0, pos=array([ 0.,  0.]), size=array([ 511.,  768.]), units='pix', vframe_callback=UNKNOWN, volume=UNKNOWN, win=Window(...))",9,9w,121.575,4.500,,,,
mm_,1,emo_fac,92,ekl,valid,ekl,ekl99w61.avi,"MovieStim3(autoLog=True, color=UNKNOWN, colorSpace=UNKNOWN, depth=0.0, filename='./vid/ekl99w61.avi', flipHoriz=False, flipVert=False, fps=UNKNOWN, interpolate=True, loop=False, name='PrimeVid', noAudio=True, opacity=1.0, ori=0.0, pos=array([ 0.,  0.]), size=array([ 511.,  768.]), units='pix', vframe_callback=UNKNOWN, vsubjid,session,block,trialno,texpr,validity,pexpr,stimf,mov,sex,id,onset,dur,corr_resp,subj_resp,accuracy,rt
mm_,1,emo_fac,157,ekl,invalid,fre,fre99m07.avi,"MovieStim3(autoLog=True, color=UNKNOWN, colorSpace=UNKNOWN, depth=0.0, filename='./vid/fre99m07.avi', flipHoriz=False, flipVert=False, fps=UNKNOWN, interpolate=True, loop=False, name='PrimeVid', noAudio=True, opacity=1.0, ori=0.0, pos=array([ 0.,  0.]), size=array([ 511.,  768.]), units='pix', vframe_callback=UNKNOWN, volume=UNKNOWN, win=Window(...))",9,9m,0.001,4.500,,,,
mm_,1,emo_fac,142,fre,valid,fre,fre99w32.avi,"MovieStim3(autoLog=True, color=UNKNOWN, colorSpace=UNKNOWN, depth=0.0, filename='./vid/fre99w32.avi', flipHoriz=False, flipVert=False, fps=UNKNOWN, interpolate=True, loop=False, name='PrimeVid', noAudio=True, opacity=1.0, ori=0.0, pos=array([ 0.,  0.]), size=array([ 511.,  768.]), units='pix', vframe_callback=UNKNOWN, volume=UNKNOWN, win=Window(...))",9,9w,4.507,4.500,,,,
mm_,1,emo_fac,123,ekl,valid,ekl,ekl99w31.avi,"MovieStim3(autoLog=True, color=UNKNOWN, colorSpace=UNKNOWN, depth=0.0, filename='./vid/ekl99w31.avi', flipHoriz=False, flipVert=False, fps=UNKNOWN, interpolate=True, loop=False, name='PrimeVid', noAudio=True, opacity=1.0, ori=0.0, pos=array([ 0.,  0.]), size=array([ 511.,  768.]), units='pix', vframe_callback=UNKNOWN, volume=UNKNOWN, win=Window(...))",9,9w,9.003,4.500,,,,
mm_,1,emo_fac,27,fre,valid,fre,fre99w61.avi,"MovieStim3(autoLog=True, color=UNKNOWN, colorSpace=UNKNOWN, depth=0.0, filename='./vid/fre99w61.avi', flipHoriz=False, flipVert=False, fps=UNKNOWN, interpolate=True, loop=False, name='PrimeVid', noAudio=True, opacity=1.0, ori=0.0, pos=array([ 0.,  0.]), size=array([ 511.,  768.]), units='pix', vframe_callback=UNKNOWN, volume=UNKNOWN, win=Window(...))",9,9w,13.502,4.500,,,,
mm_,1,emo_fac,109,ekl,invalid,fre,fre99m49.avi,"MovieStim3(autoLog=True, color=UNKNOWN, colorSpace=UNKNOWN, depth=0.0, filename='./vid/fre99m49.avi', flipHoriz=False, flipVert=False, fps=UNKNOWN, interpolate=True, loop=False, name='PrimeVid', noAudio=True, opacity=1.0, ori=0.0, pos=array([ 0.,  0.]), size=array([ 511.,  768.]), units='pix', vframe_callback=UNKNOWN, volume=UNKNOWN, win=Window(...))",9,9m,18.002,4.500,,,,
mm_,1,emo_fac,137,ekl,valid,ekl,ekl99m49.avi,"MovieStim3(autoLog=True, color=UNKNOWN, colorSpace=UNKNOWN, depth=0.0, filename='./vid/ekl99m49.avi', flipHoriz=False, flipVert=False, fps=UNKNOWN, interpolate=True, loop=False, name='PrimeVid', noAudio=True, opacity=1.0, ori=0.0, pos=array([ 0.,  0.]), size=array([ 511.,  768.]), units='pix', vframe_callback=UNKNOWN, volume=UNKNOWN, win=Window(...))",9,9m,22.502,4.500,,,,
mm_,1,emo_fac,148,ekl,invalid,fre,fre99m05.avi,"MovieStim3(autoLog=True, color=UNKNOWN, colorSpace=UNKNOWN, depth=0.0, filename='./vid/fre99m05.avi', flipHoriz=False, flipVert=False, fps=UNKNOWN, interpolate=True, loop=False, name='PrimeVid', noAudio=True, opacity=1.0, ori=0.0, pos=array([ 0.,  0.]), size=array([ 511.,  768.]), units='pix', vframe_callback=UNKNOWN, volume=UNKNOWN, win=Window(...))",9,9m,27.002,4.500,,,,
mm_,1,emo_fac,64,fre,valid,fre,fre99m20.avi,"MovieStim3(autoLog=True, color=UNKNOWN, colorSpace=UNKNOWN, depth=0.0, filename='./vid/fre99m20.avi', flipHoriz=False, flipVert=False, fps=UNKNOWN, interpolate=True, loop=False, name='PrimeVid', noAudio=True, opacity=1.0, ori=0.0, pos=array([ 0.,  0.]), size=array([ 511.,  768.]), units='pix', vframe_callback=UNKNOWN, volume=UNKNOWN, win=Window(...))",9,9m,31.502,4.500,,,,
mm_,1,emo_fac,19,ekl,invalid,fre,fre99m09.avi,"MovieStim3(autoLog=True, color=UNKNOWN, colorSpace=UNKNOWN, depth=0.0, filename='./vid/fre99m09.avi', flipHoriz=False, flipVert=False, fps=UNKNOWN, interpolate=True, loop=False, name='PrimeVid', noAudio=True, opacity=1.0, ori=0.0, pos=array([ 0.,  0.]), size=array([ 511.,  768.]), units='pix', vframe_callback=UNKNOWN, volume=UNKNOWN, win=Window(...))",9,9m,36.002,4.500,,,,
mm_,1,emo_fac,46,fre,valid,fre,fre99m33.avi,"MovieStim3(autoLog=True, color=UNKNOWN, colorSpace=UNKNOWN, depth=0.0, filename='./vid/fre99m33.avi', flipHoriz=False, flipVert=False, fps=UNKsubjid,session,block,trialno,texpr,validity,pexpr,stimf,mov,sex,id,onset,dur,corr_resp,subj_resp,accuracy,rt
mm_,1,emo_fac,64,ekl,valid,ekl,ekl99m28.avi,"MovieStim3(autoLog=True, color=UNKNOWN, colorSpace=UNKNOWN, depth=0.0, filename='./vid/ekl99m28.avi', flipHoriz=False, flipVert=False, fps=UNKNOWN, interpolate=True, loop=False, name='PrimeVid', noAudio=True, opacity=1.0, ori=0.0, pos=array([ 0.,  0.]), size=array([ 511.,  768.]), units='pix', vframe_callback=UNKNOWN, volume=UNKNOWN, win=Window(...))",9,9m,0.076,4.500,,,,
mm_,1,emo_fac,95,ekl,valid,ekl,ekl99m20.avi,"MovieStim3(autoLog=True, color=UNKNOWN, colorSpace=UNKNOWN, depth=0.0, filename='./vid/ekl99m20.avi', flipHoriz=False, flipVert=False, fps=UNKNOWN, interpolate=True, loop=False, name='PrimeVid', noAudio=True, opacity=1.0, ori=0.0, pos=array([ 0.,  0.]), size=array([ 511.,  768.]), units='pix', vframe_callback=UNKNOWN, volume=UNKNOWN, win=Window(...))",9,9m,5.452,4.500,,,,
mm_,1,emo_fac,127,ekl,valid,ekl,ekl99m03.avi,"MovieStim3(autoLog=True, color=UNKNOWN, colorSpace=UNKNOWN, depth=0.0, filename='./vid/ekl99m03.avi', flipHoriz=False, flipVert=False, fps=UNKNOWN, interpolate=True, loop=False, name='PrimeVid', noAudio=True, opacity=1.0, ori=0.0, pos=array([ 0.,  0.]), size=array([ 511.,  768.]), units='pix', vframe_callback=UNKNOWN, volume=UNKNOWN, win=Window(...))",9,9m,9.077,4.500,,,,
olume=UNKNOWN, win=Window(...))",9,9w,126.073,4.500,,,,
mm_,1,emo_fac,5,fre,invalid,ekl,ekl99m47.avi,"MovieStim3(autoLog=True, color=UNKNOWN, colorSpace=UNKNOWN, depth=0.0, filename='./vid/ekl99m47.avi', flipHoriz=False, flipVert=False, fps=UNKNOWN, interpolate=True, loop=False, name='PrimeVid', noAudio=True, opacity=1.0, ori=0.0, pos=array([ 0.,  0.]), size=array([ 511.,  768.]), units='pix', vframe_callback=UNKNOWN, volume=UNKNOWN, win=Window(...))",9,9m,130.575,4.500,,,,
mm_,1,emo_fac,82,fre,valid,fre,fre99w37.avi,"MovieStim3(autoLog=True, color=UNKNOWN, colorSpace=UNKNOWN, depth=0.0, filename='./vid/fre99w37.avi', flipHoriz=False, flipVert=False, fps=UNKNOWN, interpolate=True, loop=False, name='PrimeVid', noAudio=True, opacity=1.0, ori=0.0, pos=array([ 0.,  0.]), size=array([ 511.,  768.]), units='pix', vframe_callback=UNKNOWN, volume=UNKNOWN, win=Window(...))",9,9w,135.076,4.500,,,,
mm_,1,emo_fac,29,fre,valid,fre,fre99m28.avi,"MovieStim3(autoLog=True, color=UNKNOWN, colorSpace=UNKNOWN, depth=0.0, filename='./vid/fre99m28.avi', flipHoriz=False, flipVert=False, fps=UNKNOWN, interpolate=True, loop=False, name='PrimeVid', noAudio=True, opacity=1.0, ori=0.0, pos=array([ 0.,  0.]), size=array([ 511.,  768.]), units='pix', vframe_callback=UNKNOWN, volume=UNKNOWN, win=Window(...))",9,9m,139.575,4.500,,,,
mm_,1,emo_fac,2,fre,valid,fre,fre99w22.avi,"MovieStim3(autoLog=True, color=UNKNOWN, colorSpace=UNKNOWN, depth=0.0, filename='./vid/fre99w22.avi', flipHoriz=False, flipVert=False, fps=UNKNOWN, interpolate=True, loop=False, name='PrimeVid', noAudio=True, opacity=1.0, ori=0.0, pos=array([ 0.,  0.]), size=array([ 511.,  768.]), units='pix', vframe_callback=UNKNOWN, volume=UNKNOWN, win=Window(...))",9,9w,144.074,4.500,,,,
mm_,1,emo_fac,122,fre,valid,fre,fre99m25.avi,"MovieStim3(autoLog=True, color=UNKNOWN, colorSpace=UNKNOWN, depth=0.0, filename='./vid/fre99m25.avi', flipHoriz=False, flipVert=False, fps=UNKNOWN, interpolate=True, loop=False, name='PrimeVid', noAudio=True, opacity=1.0, ori=0.0, pos=array([ 0.,  0.]), size=array([ 511.,  768.]), units='pix', vframe_callback=UNKNOWN, volume=UNKNOWN, win=Window(...))",9,9m,148.576,4.500,,,,
mm_,1,emo_fac,21,ekl,valid,ekl,ekl99m33.avi,"MovieStim3(autoLog=True, color=UNKNOWN, colorSpace=UNKNOWN, depth=0.0, filename='./vid/ekl99m33.avi', flipHoriz=False, flipVert=False, fps=UNKNOWN, interpolate=True, loop=False, name='PrimeVid', noAudio=True, opacity=1.0, ori=0.0, pos=array([ 0.,  0.]), size=array([ 511.,  768.]), units='pix', vframe_callback=UNKNOWN, volume=UNKNOWN, win=Window(...))",9,9m,153.074,4.500,,,,
mm_,1,emo_fac,52,fre,valid,fre,fre99m36.avi,"MovieStim3(autoLog=True, color=UNKNOWN, colorSpace=UNKNOWN, depth=0.0, filename='./vid/fre99m36.avi', flipHoriz=False, flipVert=False, fps=UNKNOWN, interpolate=True, loop=False, name='PrimeVid', noAudio=True, opacity=1.0, ori=0.0, pos=array([ 0.,  0.]), size=array([ 511.,  768.]), units='pix', vframe_callback=UNKNOWN, volume=UNKNOWN, win=Window(...))",9,9m,157.574,4.500,,,,
mm_,1,emo_fac,87,fre,valid,fre,fre99m15.avi,"MovieStim3(autoLog=True, color=UNKNOWN, colorSpace=UNKNOWN, depth=0.0, filename='./vid/fre99m15.avi', flipHoriz=False, flipVert=False, fps=UNKNOWN, interpolate=True, loop=False, name='PrimeVid', noAudio=True, opacity=1.0, ori=0.0, pos=array([ 0.,  0.]), size=array([ 511.,  768.]), units='pix', vframe_callback=UNKNOWN, volume=UNKNOWN, win=Window(...))",9,9m,162.075,4.500,,,,
NOWN, interpolate=True, loop=False, name='PrimeVid', noAudio=True, opacity=1.0, ori=0.0, pos=array([ 0.,  0.]), size=array([ 511.,  768.]), units='pix', vframe_callback=UNKNOWN, volume=UNKNOWN, win=Window(...))",9,9m,40.502,4.500,,,,
mm_,1,emo_fac,15,fre,valid,fre,fre99m24.avi,"MovieStim3(autoLog=True, color=UNKNOWN, colorSpace=UNKNOWN, depth=0.0, filename='./vid/fre99m24.avi', flipHoriz=False, flipVert=False, fps=UNKNOWN, interpolate=True, loop=False, name='PrimeVid', noAudio=True, opacity=1.0, ori=0.0, pos=array([ 0.,  0.]), size=array([ 511.,  768.]), units='pix', vframe_callback=UNKNOWN, volume=UNKNOWN, win=Window(...))",9,9m,45.002,4.500,,,,
mm_,1,emo_fac,154,fre,invalid,ekl,ekl99m15.avi,"MovieStim3(autoLog=True, color=UNKNOWN, colorSpace=UNKNOWN, depth=0.0, filename='./vid/ekl99m15.avi', flipHoriz=False, flipVert=False, fps=UNKNOWN, interpolate=True, loop=False, name='PrimeVid', noAudio=True, opacity=1.0, ori=0.0, pos=array([ 0.,  0.]), size=array([ 511.,  768.]), units='pix', vframe_callback=UNKNOWN, volume=UNKNOWN, win=Window(...))",9,9m,49.502,4.500,,,,
mm_,1,emo_fac,59,ekl,valid,ekl,ekl99m21.avi,"MovieStim3(autoLog=True, color=UNKNOWN, colorSpace=UNKNOWN, depth=0.0, filename='./vid/ekl99m21.avi', flipHoriz=False, flipVert=False, fps=UNKNOWN, interpolate=True, loop=False, name='PrimeVid', noAudio=True, opacity=1.0, ori=0.0, pos=array([ 0.,  0.]), size=array([ 511.,  768.]), units='pix', vframe_callback=UNKNOWN, volume=UNKNOWN, win=Window(...))",9,9m,54.002,4.500,,,,
mm_,1,emo_fac,143,fre,valid,fre,fre99w22.avi,"MovieStim3(autoLog=True, color=UNKNOWN, colorSpace=UNKNOWN, depth=0.0, filename='./vid/fre99w22.avi', flipHoriz=False, flipVert=False, fps=UNKNOWN, interpolate=True, loop=False, name='PrimeVid', noAudio=True, opacity=1.0, ori=0.0, pos=array([ 0.,  0.]), size=array([ 511.,  768.]), units='pix', vframe_callback=UNKNOWN, volume=UNKNOWN, win=Window(...))",9,9w,58.502,4.500,,,,
subjid,session,block,trialno,texpr,validity,pexpr,stimf,mov,sex,id,onset,dur,corr_resp,subj_resp,accuracy,rt
mm_,1,emo_fac,18,ekl,invalid,fre,fre99m07.avi,"MovieStim3(autoLog=True, color=UNKNOWN, colorSpace=UNKNOWN, depth=0.0, filename='./vid/fre99m07.avi', flipHoriz=False, flipVert=False, fps=UNKNOWN, interpolate=True, loop=False, name='PrimeVid', noAudio=True, opacity=1.0, ori=0.0, pos=array([ 0.,  0.]), size=array([ 511.,  768.]), units='pix', vframe_callback=UNKNOWN, volume=UNKNOWN, win=Window(...))",9,9m,0.001,4.500,,,,
mm_,1,emo_fac,102,fre,valid,fre,fre99w22.avi,"MovieStim3(autoLog=True, color=UNKNOWN, colorSpace=UNKNOWN, depth=0.0, filename='./vid/fre99w22.avi', flipHoriz=False, flipVert=False, fps=UNKNOWN, interpolate=True, loop=False, name='PrimeVid', noAudio=True, opacity=1.0, ori=0.0, pos=array([ 0.,  0.]), size=array([ 511.,  768.]), units='pix', vframe_callback=UNKNOWN, volume=UNKNOWN, win=Window(...))",9,9w,4.503,4.500,,,,
mm_,1,emo_fac,77,ekl,invalid,fre,fre99m24.avi,"MovieStim3(autoLog=True, color=UNKNOWN, colorSpace=UNKNOWN, depth=0.0, filename='./vid/fre99m24.avi', flipHoriz=False, flipVert=False, fps=UNKNOWN, interpolate=True, loop=False, name='PrimeVid', noAudio=True, opacity=1.0, ori=0.0, pos=array([ 0.,  0.]), size=array([ 511.,  768.]), units='pix', vframe_callback=UNKNOWN, volume=UNKNOWN, win=Window(...))",9,9m,9.002,4.500,,,,
mm_,1,emo_fac,14,ekl,invalid,fre,fre99m10.avi,"MovieStim3(autoLog=True, color=UNKNOWN, colorSpace=UNKNOWN, depth=0.0, filename='./vid/fre99m10.avi', flipHoriz=False, flipVert=False, fps=UNKNOWN, interpolate=True, loop=False, name='PrimeVid', noAudio=True, opacity=1.0, ori=0.0, pos=array([ 0.,  0.]), size=array([ 511.,  768.]), units='pix', vframe_callback=UNKNOWN, volume=UNKNOWN, win=Window(...))",9,9m,13.502,4.500,,,,
mm_,1,emo_fac,110,fre,invalid,ekl,ekl99m23.avi,"MovieStim3(autoLog=True, color=UNKNOWN, colorSpace=UNKNOWN, depth=0.0, filename='./vid/ekl99m23.avi', flipHoriz=False, flipVert=False, fps=UNKNOWN, interpolate=True, loop=False, name='PrimeVid', noAudio=True, opacity=1.0, ori=0.0, pos=array([ 0.,  0.]), size=array([ 511.,  768.]), units='pix', vframe_callback=UNKNOWN, volume=UNKNOWN, win=Window(...))",9,9m,18.002,4.500,,,,
mm_,1,emo_fac,2,ekl,valid,ekl,ekl99w31.avi,"MovieStim3(autoLog=True, color=UNKNOWN, colorSpace=UNKNOWN, depth=0.0, filename='./vid/ekl99w31.avi', flipHoriz=False, flipVert=False, fps=UNKNOWN, interpolate=True, loop=False, name='PrimeVid', noAudio=True, opacity=1.0, ori=0.0, pos=array([ 0.,  0.]), size=array([ 511.,  768.]), units='pix', vframe_callback=UNKNOWN, volume=UNKNOWN, win=Window(...))",9,9w,22.502,4.500,,,,
mm_,1,emo_fac,56,fre,valid,fre,fre99w19.avi,"MovieStim3(autoLog=True, color=UNKNOWN, colorSpace=UNKNOWN, depth=0.0, filename='./vid/fre99w19.avi', flipHoriz=False, flipVert=False, fps=UNKNOWN, interpolate=True, loop=False, name='PrimeVid', noAudio=True, opacity=1.0, ori=0.0, pos=array([ 0.,  0.]), size=array([ 511.,  768.]), units='pix', vframe_callback=UNKNOWN, volume=UNKNOWN, win=Window(...))",9,9w,27.002,4.500,,,,
mm_,1,emo_fac,67,fre,valid,fre,fre99m36.avi,"MovieStim3(autoLog=True, color=UNKNOWN, colorSpace=UNKNOWN, depth=0.0, filename='./vid/fre99m36.avi', flipHoriz=False, flipVert=False, fps=UNKNOWN, interpolate=True, loop=False, name='PrimeVid', noAudio=True, opacity=1.0, ori=0.0, pos=array([ 0.,  0.]), size=array([ 511.,  768.]), units='pix', vframe_callback=UNKNOWN, volume=UNKNOWN, win=Window(...))",9,9m,31.502,4.500,,,,
mm_,1,emo_fac,69,ekl,valid,ekl,ekl99m46.avi,"MovieStim3(autoLog=True, color=UNKNOWN, colorSpace=UNKNOWN, depth=0.0, filename='./vid/ekl99m46.avi', flipHoriz=False, flipVert=False, fps=UNKNOWN, interpolate=True, loop=False, name='PrimeVid', noAudio=True, opacity=1.0, ori=0.0, pos=array([ 0.,  0.]), size=array([ 511.,  768.]), units='pix', vframe_callback=UNKNOWN, volume=UNKNOWN, win=Window(...))",9,9m,36.002,4.500,,,,
mm_,1,emo_fac,158,ekl,invalid,fre,fre99m03.avi,"MovieStim3(autoLog=True, color=UNKNOWN, colorSpace=UNKNOWN, depth=0.0, filename='./vid/fre99m03.avi', flipHoriz=False, flipVert=False, fps=UNKNOWN, interpolate=True, loop=False, name='PrimeVid', noAudio=True, opacity=1.0, ori=0.0, pos=array([ 0.,  0.]), size=array([ 511.,  768.]), units='pix', vframe_callback=UNKNOWN, volume=UNKNOWN, win=Window(...))",9,9m,40.503,4.500,,,,
mm_,1,emo_fac,108,fre,valid,fre,fre99m07.avi,"MovieStim3(autoLog=True, color=UNKNOWN, colorSpace=UNKNOWN, depth=0.0, filename='./vid/fre99m07.avi', flipHoriz=False, flipVert=False, fps=UNKNOWN, interpolate=True, loop=False, name='PrimeVid', noAudio=True, opacity=1.0, ori=0.0, pos=array([ 0.,  0.]), size=array([ 511.,  768.]), units='pix', vframe_callback=UNKNOWN, volume=UNKNOWN, win=Window(...))",9,9m,45.002,4.500,,,,
mm_,1,emo_fac,68,fre,valid,fre,fre99w32.avi,"MovieStim3(autoLog=True, color=UNKNOWN, colorSpace=UNKNOWN, depth=0.0, filename='./vid/fre99w32.avi', flipHoriz=False, flipVert=False, fps=UNKNOWN, interpolate=True, loop=False, name='PrimeVid', noAudio=True, opacity=1.0, ori=0.0, pos=array([ 0.,  0.]), size=array([ 511.,  768.]), units='pix', vframe_callback=UNKNOWN, volume=UNKNOWN, win=Window(...))",9,9w,49.502,4.500,,,,
mm_,1,emo_fac,117,fre,valid,fre,fre99w04.avi,"MovieStim3(autoLog=True, color=UNKNOWN, colorSpace=UNKNOWN, depth=0.0, filename='./vid/fre99w04.avi', flipHoriz=False, flipVert=False, fps=UNKNOWN, interpolate=True, loop=False, name='PrimeVid', noAudio=True, opacity=1.0, ori=0.0, pos=array([ 0.,  0.]), size=array([ 511.,  768.]), units='pix', vframe_callback=UNKNOWN, volume=UNKNOWN, win=Window(...))",9,9w,54.002,4.500,,,,
mm_,1,emo_fac,15,ekl,valid,ekl,ekl99m25.avi,"MovieStim3(autoLog=True, color=UNKNOWN, colorSpace=UNKNOWN, depth=0.0, filename='./vid/ekl99m25.avi', flipHoriz=False, flipVert=False, fps=UNKNOWN, interpolate=True, loop=False, name='PrimeVid', noAudio=True, opacity=1.0, ori=0.0, pos=array([ 0.,  0.]), size=array([ 511.,  768.]), units='pix', vframe_callback=UNKNOWN, volume=UNKNOWN, win=Window(...))",9,9m,58.502,4.500,,,,
mm_,1,emo_fac,61,ekl,valid,ekl,ekl99m23.avi,"MovieStim3(autoLog=True, color=UNKNOWN, colorSpace=UNKNOWN, depth=0.0, filename='./vid/ekl99m23.avi', flipHoriz=False, flipVert=False, fps=UNKNOWN, interpolate=True, loop=False, name='PrimeVid', noAudio=True, opacity=1.0, ori=0.0, pos=array([ 0.,  0.]), size=array([ 511.,  768.]), units='pix', vframe_callback=UNKNOWN, volume=UNKNOWN, win=Window(...))",9,9m,63.002,4.500,,,,
mm_,1,emo_fac,16,ekl,invalid,fre,fre99m30.avi,"MovieStim3(autoLog=True, color=UNKNOWN, colorSpace=UNKNOWN, depth=0.0, filename='./vid/fre99m30.avi', flipHoriz=False, flipVert=False, fps=UNKNOWN, interpolate=True, loop=False, name='PrimeVid', noAudio=True, opacity=1.0, ori=0.0, pos=array([ 0.,  0.]), size=array([ 511.,  768.]), units='pix', vframe_callback=UNKNOWN, volume=UNKNOWN, win=Window(...))",9,9m,67.502,4.500,,,,
mm_,1,emo_fac,24,fre,invalid,ekl,ekl99m23.avi,"MovieStim3(autoLog=True, color=UNKNOWN, colorSpace=UNKNOWN, depth=0.0, filename='./vid/ekl99m23.avi', flipHoriz=False, flipVert=False, fps=UNKNOWN, interpolate=True, loop=False, name='PrimeVid', noAudio=True, opacity=1.0, ori=0.0, pos=array([ 0.,  0.]), size=array([ 511.,  768.]), units='pix', vframe_callback=UNKNOWN, volume=UNKNOWN, win=Window(...))",9,9m,72.002,4.500,,,,
mm_,1,emo_fac,95,ekl,valid,ekl,ekl99m07.avi,"MovieStim3(autoLog=True, color=UNKNOWN, colorSpace=UNKNOWN, depth=0.0, filename='./vid/ekl99m07.avi', flipHoriz=False, flipVert=False, fps=UNKNOWN, interpolate=True, loop=False, name='PrimeVid', noAudio=True, opacity=1.0, ori=0.0, pos=array([ 0.,  0.]), size=array([ 511.,  768.]), units='pix', vframe_callback=UNKNOWN, volume=UNKNOWN, win=Window(...))",9,9m,76.502,4.500,,,,
mm_,1,emo_fac,11,ekl,valid,ekl,ekl99w61.avi,"MovieStim3(autoLog=True, color=UNKNOWN, colorSpace=UNKNOWN, depth=0.0, filename='./vid/ekl99w61.avi', flipHoriz=False, flipVert=False, fps=UNKNOWN, interpolate=True, loop=False, name='PrimeVid', noAudio=True, opacity=1.0, ori=0.0, pos=array([ 0.,  0.]), size=array([ 511.,  768.]), units='pix', vframe_callback=UNKNOWN, volume=UNKNOWN, win=Window(...))",9,9w,81.002,4.500,,,,
mm_,1,emo_fac,9,ekl,valid,ekl,ekl99w61.avi,"MovieStim3(autoLog=True, color=UNKNOWN, colorSpace=UNKNOWN, depth=0.0, filename='./vid/ekl99w61.avi', flipHoriz=False, flipVert=False, fps=UNKNOWN, interpolate=True, loop=False, name='PrimeVid', noAudio=True, opacity=1.0, ori=0.0, pos=array([ 0.,  0.]), size=array([ 511.,  768.]), units='pix', vframe_callback=UNKNOWN, volume=UNKNOWN, win=Window(...))",9,9w,85.502,4.500,,,,
